"date","time","group","subject","session","build","blocknum","trialnum","blockcode","trialcode","pretrialpause","posttrialpause","trialduration","trialtimeout","response","correct","latency","stimulusnumber1","stimulusitem1","stimulusonset1","stimulusnumber2","stimulusitem2","stimulusonset2","stimulusnumber3","stimulusitem3","stimulusonset3","stimulusnumber4","stimulusitem4","stimulusonset4","stimulusnumber5","stimulusitem5","stimulusonset5","stimulusnumber6","stimulusitem6","stimulusonset6","stimulusnumber7","stimulusitem7","stimulusonset7"
"2024-02-11","16:11:26","1","5f198e588476fa02411ad887","1","6.6.1","1","1","Consent","Consenttitle","0","0","0","0","","1","2131","1","","0","1","","0","1","Tri_00_white.png","0","1","Tri_90_white.png","0","1","Rec_00_white.png","0","1","Rec_90_white.png","0","1","Shape Matching","0"
"2024-02-11","16:11:26","1","5f198e588476fa02411ad887","1","6.6.1","1","2","Consent","consent_1option1","0","0","0","0","Agree","1","3426","1","","-12","1","Please read each statement carefully and click the 'Agree' button if you give consent. <b><u>If you wish to quit the experiment at any time, please press 'ctrl + q'<br> on your keyboard (NOTE: you will be unable to return to the experiment after quitting)</b></u>","-12","0","0","0","0","0","0","0","0","0","0","0","0","0","0","0"
"2024-02-11","16:11:26","1","5f198e588476fa02411ad887","1","6.6.1","1","2","Consent","consent_2option1","0","0","0","0","Agree","1","3426","1","","-12","1","Please read each statement carefully and click the 'Agree' button if you give consent. <b><u>If you wish to quit the experiment at any time, please press 'ctrl + q'<br> on your keyboard (NOTE: you will be unable to return to the experiment after quitting)</b></u>","-12","0","0","0","0","0","0","0","0","0","0","0","0","0","0","0"
"2024-02-11","16:11:26","1","5f198e588476fa02411ad887","1","6.6.1","1","3","Consent","consent_3option1","0","0","0","0","Agree","1","18729","1","","-16","1","Please read each statement carefully and click the 'Agree' button if you give consent. <b><u>If you wish to quit the experiment at any time, please press 'ctrl + q'<br> on your keyboard (NOTE: you will be unable to return to the experiment after quitting)</b></u>","-16","0","0","0","0","0","0","0","0","0","0","0","0","0","0","0"
"2024-02-11","16:11:26","1","5f198e588476fa02411ad887","1","6.6.1","1","3","Consent","consent_4option1","0","0","0","0","Agree","1","18729","1","","-16","1","Please read each statement carefully and click the 'Agree' button if you give consent. <b><u>If you wish to quit the experiment at any time, please press 'ctrl + q'<br> on your keyboard (NOTE: you will be unable to return to the experiment after quitting)</b></u>","-16","0","0","0","0","0","0","0","0","0","0","0","0","0","0","0"
"2024-02-11","16:11:26","1","5f198e588476fa02411ad887","1","6.6.1","1","3","Consent","consent_5option1","0","0","0","0","Agree","1","18729","1","","-16","1","Please read each statement carefully and click the 'Agree' button if you give consent. <b><u>If you wish to quit the experiment at any time, please press 'ctrl + q'<br> on your keyboard (NOTE: you will be unable to return to the experiment after quitting)</b></u>","-16","0","0","0","0","0","0","0","0","0","0","0","0","0","0","0"
"2024-02-11","16:11:26","1","5f198e588476fa02411ad887","1","6.6.1","1","4","Consent","consent_6option1","0","0","0","0","Agree","1","5663","1","","-12","1","Please read each statement carefully and click the 'Agree' button if you give consent. <b><u>If you wish to quit the experiment at any time, please press 'ctrl + q'<br> on your keyboard (NOTE: you will be unable to return to the experiment after quitting)</b></u>","-12","0","0","0","0","0","0","0","0","0","0","0","0","0","0","0"
"2024-02-11","16:11:26","1","5f198e588476fa02411ad887","1","6.6.1","1","4","Consent","consent_7option1","0","0","0","0","Agree","1","5663","1","","-12","1","Please read each statement carefully and click the 'Agree' button if you give consent. <b><u>If you wish to quit the experiment at any time, please press 'ctrl + q'<br> on your keyboard (NOTE: you will be unable to return to the experiment after quitting)</b></u>","-12","0","0","0","0","0","0","0","0","0","0","0","0","0","0","0"
"2024-02-11","16:11:26","1","5f198e588476fa02411ad887","1","6.6.1","1","4","Consent","consent_8option1","0","0","0","0","Agree","1","5663","1","","-12","1","Please read each statement carefully and click the 'Agree' button if you give consent. <b><u>If you wish to quit the experiment at any time, please press 'ctrl + q'<br> on your keyboard (NOTE: you will be unable to return to the experiment after quitting)</b></u>","-12","0","0","0","0","0","0","0","0","0","0","0","0","0","0","0"
"2024-02-11","16:11:26","1","5f198e588476fa02411ad887","1","6.6.1","1","5","Consent","consent_9option1","0","0","0","0","Agree","1","5619","1","","-16","1","Please read each statement carefully and click the 'Agree' button if you give consent. <b><u>If you wish to quit the experiment at any time, please press 'ctrl + q'<br> on your keyboard (NOTE: you will be unable to return to the experiment after quitting)</b></u>","-16","0","0","0","0","0","0","0","0","0","0","0","0","0","0","0"
"2024-02-11","16:11:26","1","5f198e588476fa02411ad887","1","6.6.1","1","5","Consent","consent_10option1","0","0","0","0","Agree","1","5619","1","","-16","1","Please read each statement carefully and click the 'Agree' button if you give consent. <b><u>If you wish to quit the experiment at any time, please press 'ctrl + q'<br> on your keyboard (NOTE: you will be unable to return to the experiment after quitting)</b></u>","-16","0","0","0","0","0","0","0","0","0","0","0","0","0","0","0"
"2024-02-11","16:11:26","1","5f198e588476fa02411ad887","1","6.6.1","1","5","Consent","consent_11option1","0","0","0","0","Agree","1","5619","1","","-16","1","Please read each statement carefully and click the 'Agree' button if you give consent. <b><u>If you wish to quit the experiment at any time, please press 'ctrl + q'<br> on your keyboard (NOTE: you will be unable to return to the experiment after quitting)</b></u>","-16","0","0","0","0","0","0","0","0","0","0","0","0","0","0","0"
"2024-02-11","16:14:33","2","5f198e588476fa02411ad887","2","6.6.1","1","1","Consent","Consenttitle","0","0","0","0","","1","888","1","","-15","1","","-15","1","Tri_00_white.png","-15","1","Tri_90_white.png","-15","1","Rec_00_white.png","-15","1","Rec_90_white.png","-15","1","Shape Matching","-15"
"2024-02-11","16:14:33","2","5f198e588476fa02411ad887","2","6.6.1","1","2","Consent","consent_1option1","0","0","0","0","Agree","1","3654","1","","-16","1","Please read each statement carefully and click the 'Agree' button if you give consent. <b><u>If you wish to quit the experiment at any time, please press 'ctrl + q'<br> on your keyboard (NOTE: you will be unable to return to the experiment after quitting)</b></u>","-16","0","0","0","0","0","0","0","0","0","0","0","0","0","0","0"
"2024-02-11","16:14:33","2","5f198e588476fa02411ad887","2","6.6.1","1","2","Consent","consent_2option1","0","0","0","0","Agree","1","3654","1","","-16","1","Please read each statement carefully and click the 'Agree' button if you give consent. <b><u>If you wish to quit the experiment at any time, please press 'ctrl + q'<br> on your keyboard (NOTE: you will be unable to return to the experiment after quitting)</b></u>","-16","0","0","0","0","0","0","0","0","0","0","0","0","0","0","0"
"2024-02-11","16:14:33","2","5f198e588476fa02411ad887","2","6.6.1","1","3","Consent","consent_3option1","0","0","0","0","Agree","1","2972","1","","-16","1","Please read each statement carefully and click the 'Agree' button if you give consent. <b><u>If you wish to quit the experiment at any time, please press 'ctrl + q'<br> on your keyboard (NOTE: you will be unable to return to the experiment after quitting)</b></u>","-16","0","0","0","0","0","0","0","0","0","0","0","0","0","0","0"
"2024-02-11","16:14:33","2","5f198e588476fa02411ad887","2","6.6.1","1","3","Consent","consent_4option1","0","0","0","0","Agree","1","2972","1","","-16","1","Please read each statement carefully and click the 'Agree' button if you give consent. <b><u>If you wish to quit the experiment at any time, please press 'ctrl + q'<br> on your keyboard (NOTE: you will be unable to return to the experiment after quitting)</b></u>","-16","0","0","0","0","0","0","0","0","0","0","0","0","0","0","0"
"2024-02-11","16:14:33","2","5f198e588476fa02411ad887","2","6.6.1","1","3","Consent","consent_5option1","0","0","0","0","Agree","1","2972","1","","-16","1","Please read each statement carefully and click the 'Agree' button if you give consent. <b><u>If you wish to quit the experiment at any time, please press 'ctrl + q'<br> on your keyboard (NOTE: you will be unable to return to the experiment after quitting)</b></u>","-16","0","0","0","0","0","0","0","0","0","0","0","0","0","0","0"
"2024-02-11","16:14:33","2","5f198e588476fa02411ad887","2","6.6.1","1","4","Consent","consent_6option1","0","0","0","0","Agree","1","4655","1","","-16","1","Please read each statement carefully and click the 'Agree' button if you give consent. <b><u>If you wish to quit the experiment at any time, please press 'ctrl + q'<br> on your keyboard (NOTE: you will be unable to return to the experiment after quitting)</b></u>","-16","0","0","0","0","0","0","0","0","0","0","0","0","0","0","0"
"2024-02-11","16:14:33","2","5f198e588476fa02411ad887","2","6.6.1","1","4","Consent","consent_7option1","0","0","0","0","Agree","1","4655","1","","-16","1","Please read each statement carefully and click the 'Agree' button if you give consent. <b><u>If you wish to quit the experiment at any time, please press 'ctrl + q'<br> on your keyboard (NOTE: you will be unable to return to the experiment after quitting)</b></u>","-16","0","0","0","0","0","0","0","0","0","0","0","0","0","0","0"
"2024-02-11","16:14:33","2","5f198e588476fa02411ad887","2","6.6.1","1","4","Consent","consent_8option1","0","0","0","0","Agree","1","4655","1","","-16","1","Please read each statement carefully and click the 'Agree' button if you give consent. <b><u>If you wish to quit the experiment at any time, please press 'ctrl + q'<br> on your keyboard (NOTE: you will be unable to return to the experiment after quitting)</b></u>","-16","0","0","0","0","0","0","0","0","0","0","0","0","0","0","0"
"2024-02-11","16:14:33","2","5f198e588476fa02411ad887","2","6.6.1","1","5","Consent","consent_9option1","0","0","0","0","Agree","1","3319","1","","-16","1","Please read each statement carefully and click the 'Agree' button if you give consent. <b><u>If you wish to quit the experiment at any time, please press 'ctrl + q'<br> on your keyboard (NOTE: you will be unable to return to the experiment after quitting)</b></u>","-16","0","0","0","0","0","0","0","0","0","0","0","0","0","0","0"
"2024-02-11","16:14:33","2","5f198e588476fa02411ad887","2","6.6.1","1","5","Consent","consent_10option1","0","0","0","0","Agree","1","3319","1","","-16","1","Please read each statement carefully and click the 'Agree' button if you give consent. <b><u>If you wish to quit the experiment at any time, please press 'ctrl + q'<br> on your keyboard (NOTE: you will be unable to return to the experiment after quitting)</b></u>","-16","0","0","0","0","0","0","0","0","0","0","0","0","0","0","0"
"2024-02-11","16:14:33","2","5f198e588476fa02411ad887","2","6.6.1","1","5","Consent","consent_11option1","0","0","0","0","Agree","1","3319","1","","-16","1","Please read each statement carefully and click the 'Agree' button if you give consent. <b><u>If you wish to quit the experiment at any time, please press 'ctrl + q'<br> on your keyboard (NOTE: you will be unable to return to the experiment after quitting)</b></u>","-16","0","0","0","0","0","0","0","0","0","0","0","0","0","0","0"
"2024-02-11","16:02:13","2","5fc60be0227abc1b525a09a8","1","6.6.1","1","1","Consent","Consenttitle","0","0","0","0","","1","3306","1","","-16","1","","-16","1","Tri_00_white.png","-16","1","Tri_90_white.png","-16","1","Rec_00_white.png","-16","1","Rec_90_white.png","-16","1","Shape Matching","-16"
"2024-02-11","16:02:13","2","5fc60be0227abc1b525a09a8","1","6.6.1","1","2","Consent","consent_1option1","0","0","0","0","Agree","1","85009","1","","-12","1","Please read each statement carefully and click the 'Agree' button if you give consent. <b><u>If you wish to quit the experiment at any time, please press 'ctrl + q'<br> on your keyboard (NOTE: you will be unable to return to the experiment after quitting)</b></u>","-12","0","0","0","0","0","0","0","0","0","0","0","0","0","0","0"
"2024-02-11","16:02:13","2","5fc60be0227abc1b525a09a8","1","6.6.1","1","2","Consent","consent_2option1","0","0","0","0","Agree","1","85009","1","","-12","1","Please read each statement carefully and click the 'Agree' button if you give consent. <b><u>If you wish to quit the experiment at any time, please press 'ctrl + q'<br> on your keyboard (NOTE: you will be unable to return to the experiment after quitting)</b></u>","-12","0","0","0","0","0","0","0","0","0","0","0","0","0","0","0"
"2024-02-11","16:02:13","2","5fc60be0227abc1b525a09a8","1","6.6.1","1","3","Consent","consent_3option1","0","0","0","0","Agree","1","21079","1","","-15","1","Please read each statement carefully and click the 'Agree' button if you give consent. <b><u>If you wish to quit the experiment at any time, please press 'ctrl + q'<br> on your keyboard (NOTE: you will be unable to return to the experiment after quitting)</b></u>","-15","0","0","0","0","0","0","0","0","0","0","0","0","0","0","0"
"2024-02-11","16:02:13","2","5fc60be0227abc1b525a09a8","1","6.6.1","1","3","Consent","consent_4option1","0","0","0","0","Agree","1","21079","1","","-15","1","Please read each statement carefully and click the 'Agree' button if you give consent. <b><u>If you wish to quit the experiment at any time, please press 'ctrl + q'<br> on your keyboard (NOTE: you will be unable to return to the experiment after quitting)</b></u>","-15","0","0","0","0","0","0","0","0","0","0","0","0","0","0","0"
"2024-02-11","16:02:13","2","5fc60be0227abc1b525a09a8","1","6.6.1","1","3","Consent","consent_5option1","0","0","0","0","Agree","1","21079","1","","-15","1","Please read each statement carefully and click the 'Agree' button if you give consent. <b><u>If you wish to quit the experiment at any time, please press 'ctrl + q'<br> on your keyboard (NOTE: you will be unable to return to the experiment after quitting)</b></u>","-15","0","0","0","0","0","0","0","0","0","0","0","0","0","0","0"
"2024-02-11","16:02:13","2","5fc60be0227abc1b525a09a8","1","6.6.1","1","4","Consent","consent_6option1","0","0","0","0","Agree","1","13172","1","","-13","1","Please read each statement carefully and click the 'Agree' button if you give consent. <b><u>If you wish to quit the experiment at any time, please press 'ctrl + q'<br> on your keyboard (NOTE: you will be unable to return to the experiment after quitting)</b></u>","-13","0","0","0","0","0","0","0","0","0","0","0","0","0","0","0"
"2024-02-11","16:02:13","2","5fc60be0227abc1b525a09a8","1","6.6.1","1","4","Consent","consent_7option1","0","0","0","0","Agree","1","13172","1","","-13","1","Please read each statement carefully and click the 'Agree' button if you give consent. <b><u>If you wish to quit the experiment at any time, please press 'ctrl + q'<br> on your keyboard (NOTE: you will be unable to return to the experiment after quitting)</b></u>","-13","0","0","0","0","0","0","0","0","0","0","0","0","0","0","0"
"2024-02-11","16:02:13","2","5fc60be0227abc1b525a09a8","1","6.6.1","1","4","Consent","consent_8option1","0","0","0","0","Agree","1","13172","1","","-13","1","Please read each statement carefully and click the 'Agree' button if you give consent. <b><u>If you wish to quit the experiment at any time, please press 'ctrl + q'<br> on your keyboard (NOTE: you will be unable to return to the experiment after quitting)</b></u>","-13","0","0","0","0","0","0","0","0","0","0","0","0","0","0","0"
"2024-02-11","16:02:13","2","5fc60be0227abc1b525a09a8","1","6.6.1","1","5","Consent","consent_9option1","0","0","0","0","Agree","1","8922","1","","-12","1","Please read each statement carefully and click the 'Agree' button if you give consent. <b><u>If you wish to quit the experiment at any time, please press 'ctrl + q'<br> on your keyboard (NOTE: you will be unable to return to the experiment after quitting)</b></u>","-12","0","0","0","0","0","0","0","0","0","0","0","0","0","0","0"
"2024-02-11","16:02:13","2","5fc60be0227abc1b525a09a8","1","6.6.1","1","5","Consent","consent_10option1","0","0","0","0","Agree","1","8922","1","","-12","1","Please read each statement carefully and click the 'Agree' button if you give consent. <b><u>If you wish to quit the experiment at any time, please press 'ctrl + q'<br> on your keyboard (NOTE: you will be unable to return to the experiment after quitting)</b></u>","-12","0","0","0","0","0","0","0","0","0","0","0","0","0","0","0"
"2024-02-11","16:02:13","2","5fc60be0227abc1b525a09a8","1","6.6.1","1","5","Consent","consent_11option1","0","0","0","0","Agree","1","8922","1","","-12","1","Please read each statement carefully and click the 'Agree' button if you give consent. <b><u>If you wish to quit the experiment at any time, please press 'ctrl + q'<br> on your keyboard (NOTE: you will be unable to return to the experiment after quitting)</b></u>","-12","0","0","0","0","0","0","0","0","0","0","0","0","0","0","0"
"2024-02-11","16:28:08","1","60ec9e86f46f8c4d12a73abb","1","6.6.1","1","1","Consent","Consenttitle","0","0","0","0","","1","28127","1","","-6","1","","-6","1","Tri_00_white.png","-6","1","Tri_90_white.png","-6","1","Rec_00_white.png","-6","1","Rec_90_white.png","-6","1","Shape Matching","-6"
"2024-02-11","15:59:16","1","5c48a0f696d59b000183e158","1","6.6.1","1","1","Consent","Consenttitle","0","0","0","0","","1","1476","1","","2","1","","2","1","Tri_00_white.png","2","1","Tri_90_white.png","2","1","Rec_00_white.png","2","1","Rec_90_white.png","2","1","Shape Matching","2"
"2024-02-11","15:59:16","1","5c48a0f696d59b000183e158","1","6.6.1","1","2","Consent","consent_1option1","0","0","0","0","Agree","1","10861","1","","0","1","Please read each statement carefully and click the 'Agree' button if you give consent. <b><u>If you wish to quit the experiment at any time, please press 'ctrl + q'<br> on your keyboard (NOTE: you will be unable to return to the experiment after quitting)</b></u>","0","0","0","0","0","0","0","0","0","0","0","0","0","0","0","0"
"2024-02-11","15:59:16","1","5c48a0f696d59b000183e158","1","6.6.1","1","2","Consent","consent_2option1","0","0","0","0","Agree","1","10861","1","","0","1","Please read each statement carefully and click the 'Agree' button if you give consent. <b><u>If you wish to quit the experiment at any time, please press 'ctrl + q'<br> on your keyboard (NOTE: you will be unable to return to the experiment after quitting)</b></u>","0","0","0","0","0","0","0","0","0","0","0","0","0","0","0","0"
"2024-02-11","15:59:16","1","5c48a0f696d59b000183e158","1","6.6.1","1","3","Consent","consent_3option1","0","0","0","0","Agree","1","10590","1","","4","1","Please read each statement carefully and click the 'Agree' button if you give consent. <b><u>If you wish to quit the experiment at any time, please press 'ctrl + q'<br> on your keyboard (NOTE: you will be unable to return to the experiment after quitting)</b></u>","4","0","0","0","0","0","0","0","0","0","0","0","0","0","0","0"
"2024-02-11","15:59:16","1","5c48a0f696d59b000183e158","1","6.6.1","1","3","Consent","consent_4option1","0","0","0","0","Agree","1","10590","1","","4","1","Please read each statement carefully and click the 'Agree' button if you give consent. <b><u>If you wish to quit the experiment at any time, please press 'ctrl + q'<br> on your keyboard (NOTE: you will be unable to return to the experiment after quitting)</b></u>","4","0","0","0","0","0","0","0","0","0","0","0","0","0","0","0"
"2024-02-11","15:59:16","1","5c48a0f696d59b000183e158","1","6.6.1","1","3","Consent","consent_5option1","0","0","0","0","Agree","1","10590","1","","4","1","Please read each statement carefully and click the 'Agree' button if you give consent. <b><u>If you wish to quit the experiment at any time, please press 'ctrl + q'<br> on your keyboard (NOTE: you will be unable to return to the experiment after quitting)</b></u>","4","0","0","0","0","0","0","0","0","0","0","0","0","0","0","0"
"2024-02-11","15:59:16","1","5c48a0f696d59b000183e158","1","6.6.1","1","4","Consent","consent_6option1","0","0","0","0","Agree","1","6545","1","","5","1","Please read each statement carefully and click the 'Agree' button if you give consent. <b><u>If you wish to quit the experiment at any time, please press 'ctrl + q'<br> on your keyboard (NOTE: you will be unable to return to the experiment after quitting)</b></u>","5","0","0","0","0","0","0","0","0","0","0","0","0","0","0","0"
"2024-02-11","15:59:16","1","5c48a0f696d59b000183e158","1","6.6.1","1","4","Consent","consent_7option1","0","0","0","0","Agree","1","6545","1","","5","1","Please read each statement carefully and click the 'Agree' button if you give consent. <b><u>If you wish to quit the experiment at any time, please press 'ctrl + q'<br> on your keyboard (NOTE: you will be unable to return to the experiment after quitting)</b></u>","5","0","0","0","0","0","0","0","0","0","0","0","0","0","0","0"
"2024-02-11","15:59:16","1","5c48a0f696d59b000183e158","1","6.6.1","1","4","Consent","consent_8option1","0","0","0","0","Agree","1","6545","1","","5","1","Please read each statement carefully and click the 'Agree' button if you give consent. <b><u>If you wish to quit the experiment at any time, please press 'ctrl + q'<br> on your keyboard (NOTE: you will be unable to return to the experiment after quitting)</b></u>","5","0","0","0","0","0","0","0","0","0","0","0","0","0","0","0"
"2024-02-11","15:59:16","1","5c48a0f696d59b000183e158","1","6.6.1","1","5","Consent","consent_9option1","0","0","0","0","Agree","1","5915","1","","11","1","Please read each statement carefully and click the 'Agree' button if you give consent. <b><u>If you wish to quit the experiment at any time, please press 'ctrl + q'<br> on your keyboard (NOTE: you will be unable to return to the experiment after quitting)</b></u>","11","0","0","0","0","0","0","0","0","0","0","0","0","0","0","0"
"2024-02-11","15:59:16","1","5c48a0f696d59b000183e158","1","6.6.1","1","5","Consent","consent_10option1","0","0","0","0","Agree","1","5915","1","","11","1","Please read each statement carefully and click the 'Agree' button if you give consent. <b><u>If you wish to quit the experiment at any time, please press 'ctrl + q'<br> on your keyboard (NOTE: you will be unable to return to the experiment after quitting)</b></u>","11","0","0","0","0","0","0","0","0","0","0","0","0","0","0","0"
"2024-02-11","15:59:16","1","5c48a0f696d59b000183e158","1","6.6.1","1","5","Consent","consent_11option1","0","0","0","0","Agree","1","5915","1","","11","1","Please read each statement carefully and click the 'Agree' button if you give consent. <b><u>If you wish to quit the experiment at any time, please press 'ctrl + q'<br> on your keyboard (NOTE: you will be unable to return to the experiment after quitting)</b></u>","11","0","0","0","0","0","0","0","0","0","0","0","0","0","0","0"
"2024-02-11","15:59:16","1","5c48a0f696d59b000183e158","1","6.6.1","4","1","training_block","target_Trial_rec","0","300","0","0","57","1","544","1","+","1","1","Rec_00_white.png","854","1","","1054","1","Rec_90_white.png","1907","1","","1054","1","correct_grey.png","2353","0","0","0"
"2024-02-11","15:59:16","1","5c48a0f696d59b000183e158","1","6.6.1","4","2","training_block","target_Trial_rec","0","300","0","0","57","1","565","1","+","0","1","Rec_00_white.png","854","1","","1053","1","Rec_90_white.png","1907","1","","1053","1","correct_grey.png","2365","0","0","0"
"2024-02-11","15:59:16","1","5c48a0f696d59b000183e158","1","6.6.1","4","3","training_block","target_Trial_tri","0","300","0","0","57","1","546","1","+","1","1","Tri_00_white.png","854","1","","1054","1","Tri_90_white.png","1907","1","","1054","1","correct_grey.png","2347","0","0","0"
"2024-02-11","15:59:16","1","5c48a0f696d59b000183e158","1","6.6.1","4","4","training_block","target_Trial_rec","0","300","0","0","57","1","616","1","+","0","1","Rec_00_white.png","853","1","","1054","1","Rec_90_white.png","1907","1","","1054","1","correct_grey.png","2417","0","0","0"
"2024-02-11","15:59:16","1","5c48a0f696d59b000183e158","1","6.6.1","4","5","training_block","target_Trial_tri","0","300","0","0","57","1","549","1","+","0","1","Tri_00_white.png","854","1","","1054","1","Tri_90_white.png","1906","1","","1054","1","correct_grey.png","2350","0","0","0"
"2024-02-11","15:59:16","1","5c48a0f696d59b000183e158","1","6.6.1","4","6","training_block","target_Trial_rec","0","300","0","0","57","1","499","1","+","0","1","Rec_00_white.png","854","1","","1053","1","Rec_90_white.png","1907","1","","1053","1","correct_grey.png","2299","0","0","0"
"2024-02-11","15:59:16","1","5c48a0f696d59b000183e158","1","6.6.1","4","7","training_block","target_Trial_tri","0","300","0","0","57","1","548","1","+","0","1","Tri_00_white.png","854","1","","1054","1","Tri_90_white.png","1906","1","","1054","1","correct_grey.png","2348","0","0","0"
"2024-02-11","15:59:16","1","5c48a0f696d59b000183e158","1","6.6.1","4","8","training_block","target_Trial_rec","0","300","0","0","57","1","569","1","+","0","1","Rec_00_white.png","854","1","","1053","1","Rec_90_white.png","1907","1","","1053","1","correct_grey.png","2370","0","0","0"
"2024-02-11","15:59:16","1","5c48a0f696d59b000183e158","1","6.6.1","4","9","training_block","target_Trial_tri","0","300","0","0","57","1","574","1","+","0","1","Tri_00_white.png","854","1","","1053","1","Tri_90_white.png","1906","1","","1053","1","correct_grey.png","2375","0","0","0"
"2024-02-11","15:59:16","1","5c48a0f696d59b000183e158","1","6.6.1","4","10","training_block","target_Trial_rec","0","300","0","0","57","1","554","1","+","0","1","Rec_00_white.png","854","1","","1054","1","Rec_90_white.png","1906","1","","1054","1","correct_grey.png","2355","0","0","0"
"2024-02-11","15:59:16","1","5c48a0f696d59b000183e158","1","6.6.1","4","11","training_block","target_Trial_rec","0","300","0","0","57","1","553","1","+","0","1","Rec_00_white.png","854","1","","1053","1","Rec_90_white.png","1907","1","","1053","1","correct_grey.png","2354","0","0","0"
"2024-02-11","15:59:16","1","5c48a0f696d59b000183e158","1","6.6.1","4","12","training_block","target_Trial_tri","0","300","0","0","57","1","625","1","+","0","1","Tri_00_white.png","854","1","","1053","1","Tri_90_white.png","1906","1","","1053","1","correct_grey.png","2426","0","0","0"
"2024-02-11","15:59:16","1","5c48a0f696d59b000183e158","1","6.6.1","4","13","training_block","target_Trial_tri","0","300","0","0","57","1","608","1","+","0","1","Tri_00_white.png","853","1","","1053","1","Tri_90_white.png","1906","1","","1053","1","correct_grey.png","2409","0","0","0"
"2024-02-11","15:59:16","1","5c48a0f696d59b000183e158","1","6.6.1","4","14","training_block","target_Trial_tri","0","300","0","0","57","1","698","1","+","0","1","Tri_00_white.png","854","1","","1053","1","Tri_90_white.png","1906","1","","1053","1","correct_grey.png","2500","0","0","0"
"2024-02-11","15:59:16","1","5c48a0f696d59b000183e158","1","6.6.1","4","15","training_block","target_Trial_rec","0","300","0","0","57","1","619","1","+","0","1","Rec_00_white.png","853","1","","1054","1","Rec_90_white.png","1907","1","","1054","1","correct_grey.png","2419","0","0","0"
"2024-02-11","15:59:16","1","5c48a0f696d59b000183e158","1","6.6.1","4","16","training_block","target_Trial_rec","0","300","0","0","57","1","527","1","+","0","1","Rec_00_white.png","854","1","","1053","1","Rec_90_white.png","1907","1","","1053","1","correct_grey.png","2328","0","0","0"
"2024-02-11","15:59:16","1","5c48a0f696d59b000183e158","1","6.6.1","4","17","training_block","target_Trial_tri","0","300","0","0","57","1","559","1","+","0","1","Tri_00_white.png","853","1","","1053","1","Tri_90_white.png","1907","1","","1053","1","correct_grey.png","2360","0","0","0"
"2024-02-11","15:59:16","1","5c48a0f696d59b000183e158","1","6.6.1","4","18","training_block","target_Trial_tri","0","300","0","0","57","1","580","1","+","0","1","Tri_00_white.png","854","1","","1054","1","Tri_90_white.png","1907","1","","1054","1","correct_grey.png","2381","0","0","0"
"2024-02-11","15:59:16","1","5c48a0f696d59b000183e158","1","6.6.1","4","19","training_block","target_Trial_rec","0","300","0","0","57","1","496","1","+","0","1","Rec_00_white.png","854","1","","1053","1","Rec_90_white.png","1906","1","","1053","1","correct_grey.png","2297","0","0","0"
"2024-02-11","15:59:16","1","5c48a0f696d59b000183e158","1","6.6.1","4","20","training_block","target_Trial_rec","0","300","0","0","57","1","520","1","+","0","1","Rec_00_white.png","853","1","","1054","1","Rec_90_white.png","1906","1","","1054","1","correct_grey.png","2320","0","0","0"
"2024-02-11","15:59:16","1","5c48a0f696d59b000183e158","1","6.6.1","4","21","training_block","target_Trial_tri","0","300","0","0","57","1","599","1","+","0","1","Tri_00_white.png","854","1","","1053","1","Tri_90_white.png","1907","1","","1053","1","correct_grey.png","2400","0","0","0"
"2024-02-11","15:59:16","1","5c48a0f696d59b000183e158","1","6.6.1","4","22","training_block","target_Trial_rec","0","300","0","0","57","1","570","1","+","0","1","Rec_00_white.png","854","1","","1053","1","Rec_90_white.png","1906","1","","1053","1","correct_grey.png","2370","0","0","0"
"2024-02-11","15:59:16","1","5c48a0f696d59b000183e158","1","6.6.1","4","23","training_block","target_Trial_tri","0","300","0","0","57","1","575","1","+","0","1","Tri_00_white.png","854","1","","1054","1","Tri_90_white.png","1907","1","","1054","1","correct_grey.png","2376","0","0","0"
"2024-02-11","15:59:16","1","5c48a0f696d59b000183e158","1","6.6.1","4","24","training_block","target_Trial_tri","0","300","0","0","57","1","580","1","+","0","1","Tri_00_white.png","853","1","","1053","1","Tri_90_white.png","1907","1","","1053","1","correct_grey.png","2381","0","0","0"
"2024-02-11","15:59:16","1","5c48a0f696d59b000183e158","1","6.6.1","6","1","block2","target_Trial_rec","0","300","0","0","57","1","580","1","+","0","1","Rec_00_white.png","854","1","","1053","1","Rec_90_white.png","1907","1","","1053","1","correct_grey.png","2381","0","0","0"
"2024-02-11","15:59:16","1","5c48a0f696d59b000183e158","1","6.6.1","6","2","block2","target_Trial_rec","0","300","0","0","57","1","592","1","+","0","1","Rec_00_white.png","854","1","","1054","1","Rec_90_white.png","1906","1","","1054","1","correct_grey.png","2393","0","0","0"
"2024-02-11","15:59:16","1","5c48a0f696d59b000183e158","1","6.6.1","6","3","block2","invalid_Trial_rec","0","300","0","0","0","1","700","1","+","0","1","Rec_00_white.png","854","1","","1053","1","Tri_90_white.png","1906","1","","1053","1","correct_grey.png","2501","0","0","0"
"2024-02-11","15:59:16","1","5c48a0f696d59b000183e158","1","6.6.1","6","4","block2","invalid_Trial_tri","0","300","0","0","0","1","700","1","+","0","1","Tri_00_white.png","853","1","","1053","1","Rec_90_white.png","1907","1","","1053","1","correct_grey.png","2500","0","0","0"
"2024-02-11","15:59:16","1","5c48a0f696d59b000183e158","1","6.6.1","6","5","block2","target_Trial_tri","0","300","0","0","57","1","587","1","+","0","1","Tri_00_white.png","854","1","","1054","1","Tri_90_white.png","1907","1","","1054","1","correct_grey.png","2388","0","0","0"
"2024-02-11","15:59:16","1","5c48a0f696d59b000183e158","1","6.6.1","6","6","block2","target_Trial_rec","0","300","0","0","57","1","575","1","+","0","1","Rec_00_white.png","854","1","","1054","1","Rec_90_white.png","1906","1","","1054","1","correct_grey.png","2377","0","0","0"
"2024-02-11","15:59:16","1","5c48a0f696d59b000183e158","1","6.6.1","6","7","block2","target_Trial_tri","0","300","0","0","57","1","556","1","+","0","1","Tri_00_white.png","853","1","","1054","1","Tri_90_white.png","1906","1","","1054","1","correct_grey.png","2356","0","0","0"
"2024-02-11","15:59:16","1","5c48a0f696d59b000183e158","1","6.6.1","6","8","block2","target_Trial_tri","0","300","0","0","57","1","504","1","+","0","1","Tri_00_white.png","854","1","","1053","1","Tri_90_white.png","1907","1","","1053","1","correct_grey.png","2305","0","0","0"
"2024-02-11","15:59:16","1","5c48a0f696d59b000183e158","1","6.6.1","6","9","block2","target_Trial_tri","0","300","0","0","57","1","431","1","+","0","1","Tri_00_white.png","854","1","","1054","1","Tri_90_white.png","1906","1","","1054","1","correct_grey.png","2233","0","0","0"
"2024-02-11","15:59:16","1","5c48a0f696d59b000183e158","1","6.6.1","6","10","block2","target_Trial_tri","0","300","0","0","57","1","426","1","+","0","1","Tri_00_white.png","854","1","","1053","1","Tri_90_white.png","1907","1","","1053","1","correct_grey.png","2227","0","0","0"
"2024-02-11","15:59:16","1","5c48a0f696d59b000183e158","1","6.6.1","6","11","block2","target_Trial_rec","0","300","0","0","57","1","512","1","+","0","1","Rec_00_white.png","854","1","","1053","1","Rec_90_white.png","1906","1","","1053","1","correct_grey.png","2312","0","0","0"
"2024-02-11","15:59:16","1","5c48a0f696d59b000183e158","1","6.6.1","6","12","block2","target_Trial_rec","0","300","0","0","57","1","489","1","+","0","1","Rec_00_white.png","854","1","","1053","1","Rec_90_white.png","1906","1","","1053","1","correct_grey.png","2290","0","0","0"
"2024-02-11","15:59:16","1","5c48a0f696d59b000183e158","1","6.6.1","6","13","block2","target_Trial_tri","0","300","0","0","57","1","530","1","+","0","1","Tri_00_white.png","854","1","","1054","1","Tri_90_white.png","1907","1","","1054","1","correct_grey.png","2331","0","0","0"
"2024-02-11","15:59:16","1","5c48a0f696d59b000183e158","1","6.6.1","6","14","block2","target_Trial_rec","0","300","0","0","57","1","450","1","+","0","1","Rec_00_white.png","854","1","","1053","1","Rec_90_white.png","1906","1","","1053","1","correct_grey.png","2251","0","0","0"
"2024-02-11","15:59:16","1","5c48a0f696d59b000183e158","1","6.6.1","6","15","block2","target_Trial_tri","0","300","0","0","57","1","500","1","+","0","1","Tri_00_white.png","854","1","","1053","1","Tri_90_white.png","1907","1","","1053","1","correct_grey.png","2300","0","0","0"
"2024-02-11","15:59:16","1","5c48a0f696d59b000183e158","1","6.6.1","6","16","block2","target_Trial_rec","0","300","0","0","57","1","499","1","+","0","1","Rec_00_white.png","854","1","","1053","1","Rec_90_white.png","1906","1","","1053","1","correct_grey.png","2300","0","0","0"
"2024-02-11","15:59:16","1","5c48a0f696d59b000183e158","1","6.6.1","6","17","block2","target_Trial_tri","0","300","0","0","57","1","449","1","+","0","1","Tri_00_white.png","854","1","","1054","1","Tri_90_white.png","1907","1","","1054","1","correct_grey.png","2249","0","0","0"
"2024-02-11","15:59:16","1","5c48a0f696d59b000183e158","1","6.6.1","6","18","block2","invalid_Trial_tri","0","300","0","0","0","1","700","1","+","0","1","Tri_00_white.png","853","1","","1053","1","Rec_90_white.png","1907","1","","1053","1","correct_grey.png","2500","0","0","0"
"2024-02-11","15:59:16","1","5c48a0f696d59b000183e158","1","6.6.1","6","19","block2","target_Trial_rec","0","300","0","0","57","1","469","1","+","0","1","Rec_00_white.png","853","1","","1054","1","Rec_90_white.png","1907","1","","1054","1","correct_grey.png","2269","0","0","0"
"2024-02-11","15:59:16","1","5c48a0f696d59b000183e158","1","6.6.1","6","20","block2","target_Trial_rec","0","300","0","0","57","1","502","1","+","0","1","Rec_00_white.png","854","1","","1054","1","Rec_90_white.png","1906","1","","1054","1","correct_grey.png","2302","0","0","0"
"2024-02-11","15:59:16","1","5c48a0f696d59b000183e158","1","6.6.1","6","21","block2","target_Trial_tri","0","300","0","0","57","1","407","1","+","0","1","Tri_00_white.png","854","1","","1053","1","Tri_90_white.png","1907","1","","1053","1","correct_grey.png","2208","0","0","0"
"2024-02-11","15:59:16","1","5c48a0f696d59b000183e158","1","6.6.1","6","22","block2","invalid_Trial_rec","0","300","0","0","0","1","700","1","+","0","1","Rec_00_white.png","854","1","","1053","1","Tri_90_white.png","1906","1","","1053","1","correct_grey.png","2501","0","0","0"
"2024-02-11","15:59:16","1","5c48a0f696d59b000183e158","1","6.6.1","6","23","block2","target_Trial_tri","0","300","0","0","57","1","477","1","+","0","1","Tri_00_white.png","854","1","","1053","1","Tri_90_white.png","1907","1","","1053","1","correct_grey.png","2277","0","0","0"
"2024-02-11","15:59:16","1","5c48a0f696d59b000183e158","1","6.6.1","6","24","block2","target_Trial_rec","0","300","0","0","57","1","487","1","+","0","1","Rec_00_white.png","854","1","","1054","1","Rec_90_white.png","1907","1","","1054","1","correct_grey.png","2288","0","0","0"
"2024-02-11","15:59:16","1","5c48a0f696d59b000183e158","1","6.6.1","6","25","block2","Break","0","0","0","0","57","1","13798","1","Please take a few seconds to rest your eyes.     When you're ready to continue, please press the spacebar.","0","0","0","0","0","0","0","0","0","0","0","0","0","0","0","0","0","0","0"
"2024-02-11","15:59:16","1","5c48a0f696d59b000183e158","1","6.6.1","6","26","block2","target_Trial_tri","0","300","0","0","57","1","438","1","+","0","1","Tri_00_white.png","854","1","","1053","1","Tri_90_white.png","1906","1","","1053","1","correct_grey.png","2238","0","0","0"
"2024-02-11","15:59:16","1","5c48a0f696d59b000183e158","1","6.6.1","6","27","block2","target_Trial_rec","0","300","0","0","57","1","435","1","+","0","1","Rec_00_white.png","853","1","","1053","1","Rec_90_white.png","1906","1","","1053","1","correct_grey.png","2236","0","0","0"
"2024-02-11","15:59:16","1","5c48a0f696d59b000183e158","1","6.6.1","6","28","block2","target_Trial_rec","0","300","0","0","57","1","453","1","+","0","1","Rec_00_white.png","854","1","","1054","1","Rec_90_white.png","1907","1","","1054","1","correct_grey.png","2253","0","0","0"
"2024-02-11","15:59:16","1","5c48a0f696d59b000183e158","1","6.6.1","6","29","block2","target_Trial_rec","0","300","0","0","57","1","406","1","+","0","1","Rec_00_white.png","854","1","","1053","1","Rec_90_white.png","1907","1","","1053","1","correct_grey.png","2206","0","0","0"
"2024-02-11","15:59:16","1","5c48a0f696d59b000183e158","1","6.6.1","6","30","block2","target_Trial_tri","0","300","0","0","57","1","433","1","+","0","1","Tri_00_white.png","854","1","","1054","1","Tri_90_white.png","1907","1","","1054","1","correct_grey.png","2234","0","0","0"
"2024-02-11","15:59:16","1","5c48a0f696d59b000183e158","1","6.6.1","6","31","block2","target_Trial_tri","0","300","0","0","57","1","450","1","+","0","1","Tri_00_white.png","854","1","","1053","1","Tri_90_white.png","1906","1","","1053","1","correct_grey.png","2251","0","0","0"
"2024-02-11","15:59:16","1","5c48a0f696d59b000183e158","1","6.6.1","6","32","block2","target_Trial_tri","0","300","0","0","57","1","453","1","+","0","1","Tri_00_white.png","854","1","","1053","1","Tri_90_white.png","1907","1","","1053","1","correct_grey.png","2253","0","0","0"
"2024-02-11","15:59:16","1","5c48a0f696d59b000183e158","1","6.6.1","6","33","block2","invalid_Trial_tri","0","300","0","0","0","1","700","1","+","0","1","Tri_00_white.png","853","1","","1053","1","Rec_90_white.png","1906","1","","1053","1","correct_grey.png","2500","0","0","0"
"2024-02-11","15:59:16","1","5c48a0f696d59b000183e158","1","6.6.1","6","34","block2","target_Trial_tri","0","300","0","0","57","1","421","1","+","0","1","Tri_00_white.png","854","1","","1053","1","Tri_90_white.png","1906","1","","1053","1","correct_grey.png","2221","0","0","0"
"2024-02-11","15:59:16","1","5c48a0f696d59b000183e158","1","6.6.1","6","35","block2","target_Trial_rec","0","300","0","0","57","1","504","1","+","0","1","Rec_00_white.png","854","1","","1054","1","Rec_90_white.png","1907","1","","1054","1","correct_grey.png","2304","0","0","0"
"2024-02-11","15:59:16","1","5c48a0f696d59b000183e158","1","6.6.1","6","36","block2","target_Trial_rec","0","300","0","0","57","1","431","1","+","0","1","Rec_00_white.png","854","1","","1054","1","Rec_90_white.png","1906","1","","1054","1","correct_grey.png","2231","0","0","0"
"2024-02-11","15:59:16","1","5c48a0f696d59b000183e158","1","6.6.1","6","37","block2","target_Trial_rec","0","300","0","0","57","1","377","1","+","1","1","Rec_00_white.png","854","1","","1053","1","Rec_90_white.png","1906","1","","1053","1","correct_grey.png","2178","0","0","0"
"2024-02-11","15:59:16","1","5c48a0f696d59b000183e158","1","6.6.1","6","38","block2","invalid_Trial_rec","0","300","0","0","0","1","700","1","+","0","1","Rec_00_white.png","854","1","","1053","1","Tri_90_white.png","1906","1","","1053","1","correct_grey.png","2500","0","0","0"
"2024-02-11","15:59:16","1","5c48a0f696d59b000183e158","1","6.6.1","6","39","block2","target_Trial_tri","0","300","0","0","57","1","381","1","+","0","1","Tri_00_white.png","854","1","","1053","1","Tri_90_white.png","1906","1","","1053","1","correct_grey.png","2182","0","0","0"
"2024-02-11","15:59:16","1","5c48a0f696d59b000183e158","1","6.6.1","6","40","block2","target_Trial_tri","0","300","0","0","57","1","402","1","+","0","1","Tri_00_white.png","854","1","","1053","1","Tri_90_white.png","1907","1","","1053","1","correct_grey.png","2203","0","0","0"
"2024-02-11","15:59:16","1","5c48a0f696d59b000183e158","1","6.6.1","6","41","block2","invalid_Trial_tri","0","300","0","0","0","1","700","1","+","0","1","Tri_00_white.png","854","1","","1054","1","Rec_90_white.png","1907","1","","1054","1","correct_grey.png","2501","0","0","0"
"2024-02-11","15:59:16","1","5c48a0f696d59b000183e158","1","6.6.1","6","42","block2","target_Trial_rec","0","300","0","0","57","1","494","1","+","0","1","Rec_00_white.png","853","1","","1053","1","Rec_90_white.png","1906","1","","1053","1","correct_grey.png","2294","0","0","0"
"2024-02-11","15:59:16","1","5c48a0f696d59b000183e158","1","6.6.1","6","43","block2","target_Trial_rec","0","300","0","0","57","1","413","1","+","0","1","Rec_00_white.png","854","1","","1053","1","Rec_90_white.png","1906","1","","1053","1","correct_grey.png","2213","0","0","0"
"2024-02-11","15:59:16","1","5c48a0f696d59b000183e158","1","6.6.1","6","44","block2","target_Trial_rec","0","300","0","0","57","1","424","1","+","0","1","Rec_00_white.png","854","1","","1053","1","Rec_90_white.png","1906","1","","1053","1","correct_grey.png","2225","0","0","0"
"2024-02-11","15:59:16","1","5c48a0f696d59b000183e158","1","6.6.1","6","45","block2","target_Trial_rec","0","300","0","0","57","1","461","1","+","0","1","Rec_00_white.png","853","1","","1053","1","Rec_90_white.png","1907","1","","1053","1","correct_grey.png","2262","0","0","0"
"2024-02-11","15:59:16","1","5c48a0f696d59b000183e158","1","6.6.1","6","46","block2","target_Trial_tri","0","300","0","0","57","1","439","1","+","0","1","Tri_00_white.png","854","1","","1053","1","Tri_90_white.png","1906","1","","1053","1","correct_grey.png","2240","0","0","0"
"2024-02-11","15:59:16","1","5c48a0f696d59b000183e158","1","6.6.1","6","47","block2","target_Trial_tri","0","300","0","0","0","0","700","1","+","0","1","Tri_00_white.png","854","1","","1053","1","Tri_90_white.png","1907","1","","1053","1","incorrect_grey.png","2501","0","0","0"
"2024-02-11","15:59:16","1","5c48a0f696d59b000183e158","1","6.6.1","6","48","block2","invalid_Trial_rec","0","300","0","0","0","1","700","1","+","0","1","Rec_00_white.png","854","1","","1054","1","Tri_90_white.png","1907","1","","1054","1","correct_grey.png","2500","0","0","0"
"2024-02-11","15:59:16","1","5c48a0f696d59b000183e158","1","6.6.1","6","49","block2","target_Trial_tri","0","300","0","0","57","1","368","1","+","0","1","Tri_00_white.png","854","1","","1054","1","Tri_90_white.png","1906","1","","1054","1","correct_grey.png","2168","0","0","0"
"2024-02-11","15:59:16","1","5c48a0f696d59b000183e158","1","6.6.1","6","50","block2","Break","0","0","0","0","57","1","19677","1","Please take a few seconds to rest your eyes.     When you're ready to continue, please press the spacebar.","0","0","0","0","0","0","0","0","0","0","0","0","0","0","0","0","0","0","0"
"2024-02-11","15:59:16","1","5c48a0f696d59b000183e158","1","6.6.1","6","51","block2","target_Trial_tri","0","300","0","0","57","1","388","1","+","0","1","Tri_00_white.png","854","1","","1053","1","Tri_90_white.png","1906","1","","1053","1","correct_grey.png","2189","0","0","0"
"2024-02-11","15:59:16","1","5c48a0f696d59b000183e158","1","6.6.1","6","52","block2","target_Trial_tri","0","300","0","0","57","1","411","1","+","0","1","Tri_00_white.png","854","1","","1053","1","Tri_90_white.png","1906","1","","1053","1","correct_grey.png","2211","0","0","0"
"2024-02-11","15:59:16","1","5c48a0f696d59b000183e158","1","6.6.1","6","53","block2","target_Trial_rec","0","300","0","0","57","1","415","1","+","1","1","Rec_00_white.png","854","1","","1053","1","Rec_90_white.png","1906","1","","1053","1","correct_grey.png","2216","0","0","0"
"2024-02-11","15:59:16","1","5c48a0f696d59b000183e158","1","6.6.1","6","54","block2","target_Trial_tri","0","300","0","0","57","1","403","1","+","0","1","Tri_00_white.png","854","1","","1053","1","Tri_90_white.png","1907","1","","1053","1","correct_grey.png","2203","0","0","0"
"2024-02-11","15:59:16","1","5c48a0f696d59b000183e158","1","6.6.1","6","55","block2","invalid_Trial_tri","0","300","0","0","0","1","700","1","+","0","1","Tri_00_white.png","854","1","","1054","1","Rec_90_white.png","1907","1","","1054","1","correct_grey.png","2501","0","0","0"
"2024-02-11","15:59:16","1","5c48a0f696d59b000183e158","1","6.6.1","6","56","block2","target_Trial_rec","0","300","0","0","57","1","376","1","+","0","1","Rec_00_white.png","854","1","","1053","1","Rec_90_white.png","1907","1","","1053","1","correct_grey.png","2176","0","0","0"
"2024-02-11","15:59:16","1","5c48a0f696d59b000183e158","1","6.6.1","6","57","block2","target_Trial_rec","0","300","0","0","57","1","412","1","+","0","1","Rec_00_white.png","853","1","","1054","1","Rec_90_white.png","1906","1","","1054","1","correct_grey.png","2213","0","0","0"
"2024-02-11","15:59:16","1","5c48a0f696d59b000183e158","1","6.6.1","6","58","block2","target_Trial_tri","0","300","0","0","57","1","416","1","+","0","1","Tri_00_white.png","854","1","","1054","1","Tri_90_white.png","1906","1","","1054","1","correct_grey.png","2216","0","0","0"
"2024-02-11","15:59:16","1","5c48a0f696d59b000183e158","1","6.6.1","6","59","block2","target_Trial_tri","0","300","0","0","57","1","377","1","+","0","1","Tri_00_white.png","853","1","","1054","1","Tri_90_white.png","1906","1","","1054","1","correct_grey.png","2178","0","0","0"
"2024-02-11","15:59:16","1","5c48a0f696d59b000183e158","1","6.6.1","6","60","block2","target_Trial_tri","0","300","0","0","57","1","462","1","+","0","1","Tri_00_white.png","853","1","","1054","1","Tri_90_white.png","1907","1","","1054","1","correct_grey.png","2263","0","0","0"
"2024-02-11","15:59:16","1","5c48a0f696d59b000183e158","1","6.6.1","6","61","block2","target_Trial_rec","0","300","0","0","57","1","448","1","+","0","1","Rec_00_white.png","853","1","","1053","1","Rec_90_white.png","1906","1","","1053","1","correct_grey.png","2248","0","0","0"
"2024-02-11","15:59:16","1","5c48a0f696d59b000183e158","1","6.6.1","6","62","block2","target_Trial_rec","0","300","0","0","57","1","378","1","+","0","1","Rec_00_white.png","853","1","","1054","1","Rec_90_white.png","1906","1","","1054","1","correct_grey.png","2179","0","0","0"
"2024-02-11","15:59:16","1","5c48a0f696d59b000183e158","1","6.6.1","6","63","block2","invalid_Trial_rec","0","300","0","0","0","1","700","1","+","0","1","Rec_00_white.png","854","1","","1053","1","Tri_90_white.png","1906","1","","1053","1","correct_grey.png","2501","0","0","0"
"2024-02-11","15:59:16","1","5c48a0f696d59b000183e158","1","6.6.1","6","64","block2","target_Trial_rec","0","300","0","0","57","1","405","1","+","0","1","Rec_00_white.png","854","1","","1053","1","Rec_90_white.png","1906","1","","1053","1","correct_grey.png","2206","0","0","0"
"2024-02-11","15:59:16","1","5c48a0f696d59b000183e158","1","6.6.1","6","65","block2","invalid_Trial_tri","0","300","0","0","0","1","700","1","+","0","1","Tri_00_white.png","854","1","","1053","1","Rec_90_white.png","1906","1","","1053","1","correct_grey.png","2500","0","0","0"
"2024-02-11","15:59:16","1","5c48a0f696d59b000183e158","1","6.6.1","6","66","block2","target_Trial_rec","0","300","0","0","57","1","400","1","+","0","1","Rec_00_white.png","854","1","","1053","1","Rec_90_white.png","1907","1","","1053","1","correct_grey.png","2201","0","0","0"
"2024-02-11","15:59:16","1","5c48a0f696d59b000183e158","1","6.6.1","6","67","block2","target_Trial_tri","0","300","0","0","57","1","428","1","+","0","1","Tri_00_white.png","854","1","","1053","1","Tri_90_white.png","1906","1","","1053","1","correct_grey.png","2228","0","0","0"
"2024-02-11","15:59:16","1","5c48a0f696d59b000183e158","1","6.6.1","6","68","block2","target_Trial_rec","0","300","0","0","57","1","415","1","+","0","1","Rec_00_white.png","854","1","","1054","1","Rec_90_white.png","1907","1","","1054","1","correct_grey.png","2215","0","0","0"
"2024-02-11","15:59:16","1","5c48a0f696d59b000183e158","1","6.6.1","6","69","block2","target_Trial_rec","0","300","0","0","57","1","377","1","+","0","1","Rec_00_white.png","853","1","","1053","1","Rec_90_white.png","1906","1","","1053","1","correct_grey.png","2178","0","0","0"
"2024-02-11","15:59:16","1","5c48a0f696d59b000183e158","1","6.6.1","6","70","block2","target_Trial_rec","0","300","0","0","57","1","365","1","+","0","1","Rec_00_white.png","854","1","","1054","1","Rec_90_white.png","1906","1","","1054","1","correct_grey.png","2166","0","0","0"
"2024-02-11","15:59:16","1","5c48a0f696d59b000183e158","1","6.6.1","6","71","block2","target_Trial_tri","0","300","0","0","57","1","405","1","+","0","1","Tri_00_white.png","853","1","","1053","1","Tri_90_white.png","1906","1","","1053","1","correct_grey.png","2206","0","0","0"
"2024-02-11","15:59:16","1","5c48a0f696d59b000183e158","1","6.6.1","6","72","block2","target_Trial_tri","0","300","0","0","57","1","431","1","+","0","1","Tri_00_white.png","853","1","","1072","1","Tri_90_white.png","1907","1","","1072","1","correct_grey.png","2232","0","0","0"
"2024-02-11","15:59:16","1","5c48a0f696d59b000183e158","1","6.6.1","6","73","block2","invalid_Trial_rec","0","300","0","0","0","1","700","1","+","0","1","Rec_00_white.png","853","1","","1053","1","Tri_90_white.png","1906","1","","1053","1","correct_grey.png","2500","0","0","0"
"2024-02-11","15:59:16","1","5c48a0f696d59b000183e158","1","6.6.1","6","74","block2","target_Trial_tri","0","300","0","0","57","1","369","1","+","0","1","Tri_00_white.png","854","1","","1053","1","Tri_90_white.png","1907","1","","1053","1","correct_grey.png","2170","0","0","0"
"2024-02-11","15:59:16","1","5c48a0f696d59b000183e158","1","6.6.1","6","75","block2","Break","0","0","0","0","57","1","5014","1","Please take a few seconds to rest your eyes.     When you're ready to continue, please press the spacebar.","0","0","0","0","0","0","0","0","0","0","0","0","0","0","0","0","0","0","0"
"2024-02-11","15:59:16","1","5c48a0f696d59b000183e158","1","6.6.1","6","76","block2","target_Trial_rec","0","300","0","0","57","1","390","1","+","2","1","Rec_00_white.png","854","1","","1054","1","Rec_90_white.png","1906","1","","1054","1","correct_grey.png","2191","0","0","0"
"2024-02-11","15:59:16","1","5c48a0f696d59b000183e158","1","6.6.1","6","77","block2","target_Trial_tri","0","300","0","0","57","1","387","1","+","0","1","Tri_00_white.png","854","1","","1053","1","Tri_90_white.png","1906","1","","1053","1","correct_grey.png","2187","0","0","0"
"2024-02-11","15:59:16","1","5c48a0f696d59b000183e158","1","6.6.1","6","78","block2","invalid_Trial_rec","0","300","0","0","57","0","385","1","+","0","1","Rec_00_white.png","854","1","","1053","1","Tri_90_white.png","1906","1","","1053","1","incorrect_grey.png","2186","0","0","0"
"2024-02-11","15:59:16","1","5c48a0f696d59b000183e158","1","6.6.1","6","79","block2","target_Trial_tri","0","300","0","0","57","1","405","1","+","0","1","Tri_00_white.png","859","1","","1054","1","Tri_90_white.png","1907","1","","1054","1","correct_grey.png","2205","0","0","0"
"2024-02-11","15:59:16","1","5c48a0f696d59b000183e158","1","6.6.1","6","80","block2","target_Trial_tri","0","300","0","0","57","1","409","1","+","0","1","Tri_00_white.png","854","1","","1053","1","Tri_90_white.png","1906","1","","1053","1","correct_grey.png","2210","0","0","0"
"2024-02-11","15:59:16","1","5c48a0f696d59b000183e158","1","6.6.1","6","81","block2","target_Trial_tri","0","300","0","0","57","1","365","1","+","0","1","Tri_00_white.png","854","1","","1053","1","Tri_90_white.png","1906","1","","1053","1","correct_grey.png","2166","0","0","0"
"2024-02-11","15:59:16","1","5c48a0f696d59b000183e158","1","6.6.1","6","82","block2","invalid_Trial_rec","0","300","0","0","0","1","700","1","+","0","1","Rec_00_white.png","854","1","","1053","1","Tri_90_white.png","1906","1","","1053","1","correct_grey.png","2500","0","0","0"
"2024-02-11","15:59:16","1","5c48a0f696d59b000183e158","1","6.6.1","6","83","block2","target_Trial_tri","0","300","0","0","57","1","419","1","+","0","1","Tri_00_white.png","854","1","","1053","1","Tri_90_white.png","1906","1","","1053","1","correct_grey.png","2220","0","0","0"
"2024-02-11","15:59:16","1","5c48a0f696d59b000183e158","1","6.6.1","6","84","block2","target_Trial_tri","0","300","0","0","57","1","405","1","+","0","1","Tri_00_white.png","854","1","","1054","1","Tri_90_white.png","1907","1","","1054","1","correct_grey.png","2206","0","0","0"
"2024-02-11","15:59:16","1","5c48a0f696d59b000183e158","1","6.6.1","6","85","block2","target_Trial_tri","0","300","0","0","57","1","385","1","+","0","1","Tri_00_white.png","854","1","","1053","1","Tri_90_white.png","1906","1","","1053","1","correct_grey.png","2186","0","0","0"
"2024-02-11","15:59:16","1","5c48a0f696d59b000183e158","1","6.6.1","6","86","block2","target_Trial_rec","0","300","0","0","57","1","429","1","+","0","1","Rec_00_white.png","854","1","","1053","1","Rec_90_white.png","1906","1","","1053","1","correct_grey.png","2230","0","0","0"
"2024-02-11","15:59:16","1","5c48a0f696d59b000183e158","1","6.6.1","6","87","block2","target_Trial_tri","0","300","0","0","57","1","416","1","+","0","1","Tri_00_white.png","854","1","","1053","1","Tri_90_white.png","1912","1","","1053","1","correct_grey.png","2216","0","0","0"
"2024-02-11","15:59:16","1","5c48a0f696d59b000183e158","1","6.6.1","6","88","block2","target_Trial_rec","0","300","0","0","57","1","404","1","+","0","1","Rec_00_white.png","854","1","","1054","1","Rec_90_white.png","1906","1","","1054","1","correct_grey.png","2204","0","0","0"
"2024-02-11","15:59:16","1","5c48a0f696d59b000183e158","1","6.6.1","6","89","block2","target_Trial_rec","0","300","0","0","57","1","360","1","+","0","1","Rec_00_white.png","854","1","","1053","1","Rec_90_white.png","1906","1","","1053","1","correct_grey.png","2161","0","0","0"
"2024-02-11","15:59:16","1","5c48a0f696d59b000183e158","1","6.6.1","6","90","block2","target_Trial_tri","0","300","0","0","57","1","391","1","+","0","1","Tri_00_white.png","854","1","","1053","1","Tri_90_white.png","1907","1","","1053","1","correct_grey.png","2192","0","0","0"
"2024-02-11","15:59:16","1","5c48a0f696d59b000183e158","1","6.6.1","6","91","block2","target_Trial_rec","0","300","0","0","57","1","413","1","+","0","1","Rec_00_white.png","854","1","","1053","1","Rec_90_white.png","1906","1","","1053","1","correct_grey.png","2214","0","0","0"
"2024-02-11","15:59:16","1","5c48a0f696d59b000183e158","1","6.6.1","6","92","block2","target_Trial_rec","0","300","0","0","57","1","377","1","+","0","1","Rec_00_white.png","854","1","","1053","1","Rec_90_white.png","1906","1","","1053","1","correct_grey.png","2177","0","0","0"
"2024-02-11","15:59:16","1","5c48a0f696d59b000183e158","1","6.6.1","6","93","block2","invalid_Trial_tri","0","300","0","0","0","1","700","1","+","0","1","Tri_00_white.png","854","1","","1053","1","Rec_90_white.png","1907","1","","1053","1","correct_grey.png","2500","0","0","0"
"2024-02-11","15:59:16","1","5c48a0f696d59b000183e158","1","6.6.1","6","94","block2","target_Trial_rec","0","300","0","0","57","1","381","1","+","0","1","Rec_00_white.png","853","1","","1053","1","Rec_90_white.png","1906","1","","1053","1","correct_grey.png","2182","0","0","0"
"2024-02-11","15:59:16","1","5c48a0f696d59b000183e158","1","6.6.1","6","95","block2","invalid_Trial_tri","0","300","0","0","0","1","700","1","+","0","1","Tri_00_white.png","854","1","","1054","1","Rec_90_white.png","1906","1","","1054","1","correct_grey.png","2500","0","0","0"
"2024-02-11","15:59:16","1","5c48a0f696d59b000183e158","1","6.6.1","6","96","block2","target_Trial_tri","0","300","0","0","57","1","368","1","+","0","1","Tri_00_white.png","854","1","","1053","1","Tri_90_white.png","1906","1","","1053","1","correct_grey.png","2168","0","0","0"
"2024-02-11","15:59:16","1","5c48a0f696d59b000183e158","1","6.6.1","6","97","block2","target_Trial_rec","0","300","0","0","57","1","405","1","+","3","1","Rec_00_white.png","854","1","","1054","1","Rec_90_white.png","1906","1","","1054","1","correct_grey.png","2205","0","0","0"
"2024-02-11","15:59:16","1","5c48a0f696d59b000183e158","1","6.6.1","6","98","block2","target_Trial_rec","0","300","0","0","57","1","408","1","+","0","1","Rec_00_white.png","854","1","","1053","1","Rec_90_white.png","1906","1","","1053","1","correct_grey.png","2209","0","0","0"
"2024-02-11","15:59:16","1","5c48a0f696d59b000183e158","1","6.6.1","6","99","block2","target_Trial_rec","0","300","0","0","57","1","365","1","+","0","1","Rec_00_white.png","854","1","","1054","1","Rec_90_white.png","1907","1","","1054","1","correct_grey.png","2165","0","0","0"
"2024-02-11","15:59:16","1","5c48a0f696d59b000183e158","1","6.6.1","7","1","block3","target_Trial_rec","0","300","0","0","0","0","700","1","+","5","1","Rec_00_white.png","854","1","","1053","1","Rec_90_white.png","1907","1","","1053","1","incorrect_grey.png","2501","0","0","0"
"2024-02-11","15:59:16","1","5c48a0f696d59b000183e158","1","6.6.1","7","2","block3","target_Trial_tri","0","300","0","0","57","1","419","1","+","1","1","Tri_00_white.png","853","1","","1053","1","Tri_90_white.png","1907","1","","1053","1","correct_grey.png","2221","0","0","0"
"2024-02-11","15:59:16","1","5c48a0f696d59b000183e158","1","6.6.1","7","3","block3","target_Trial_tri","0","300","0","0","57","1","362","1","+","0","1","Tri_00_white.png","854","1","","1053","1","Tri_90_white.png","1906","1","","1053","1","correct_grey.png","2162","0","0","0"
"2024-02-11","15:59:16","1","5c48a0f696d59b000183e158","1","6.6.1","7","4","block3","target_Trial_tri","0","300","0","0","57","1","366","1","+","0","1","Tri_00_white.png","854","1","","1053","1","Tri_90_white.png","1907","1","","1053","1","correct_grey.png","2167","0","0","0"
"2024-02-11","15:59:16","1","5c48a0f696d59b000183e158","1","6.6.1","7","5","block3","invalid_Trial_tri","0","300","0","0","0","1","700","1","+","0","1","Tri_00_white.png","853","1","","1054","1","Rec_90_white.png","1907","1","","1054","1","correct_grey.png","2501","0","0","0"
"2024-02-11","15:59:16","1","5c48a0f696d59b000183e158","1","6.6.1","7","6","block3","invalid_Trial_rec","0","300","0","0","0","1","700","1","+","0","1","Rec_00_white.png","854","1","","1054","1","Tri_90_white.png","1906","1","","1054","1","correct_grey.png","2501","0","0","0"
"2024-02-11","15:59:16","1","5c48a0f696d59b000183e158","1","6.6.1","7","7","block3","target_Trial_tri","0","300","0","0","57","1","386","1","+","0","1","Tri_00_white.png","854","1","","1053","1","Tri_90_white.png","1907","1","","1053","1","correct_grey.png","2186","0","0","0"
"2024-02-11","15:59:16","1","5c48a0f696d59b000183e158","1","6.6.1","7","8","block3","target_Trial_rec","0","300","0","0","57","1","406","1","+","0","1","Rec_00_white.png","854","1","","1053","1","Rec_90_white.png","1907","1","","1053","1","correct_grey.png","2206","0","0","0"
"2024-02-11","15:59:16","1","5c48a0f696d59b000183e158","1","6.6.1","7","9","block3","target_Trial_tri","0","300","0","0","57","1","408","1","+","0","1","Tri_00_white.png","854","1","","1054","1","Tri_90_white.png","1907","1","","1054","1","correct_grey.png","2209","0","0","0"
"2024-02-11","15:59:16","1","5c48a0f696d59b000183e158","1","6.6.1","7","10","block3","invalid_Trial_rec","0","300","0","0","0","1","700","1","+","0","1","Rec_00_white.png","854","1","","1054","1","Tri_90_white.png","1906","1","","1054","1","correct_grey.png","2501","0","0","0"
"2024-02-11","15:59:16","1","5c48a0f696d59b000183e158","1","6.6.1","7","11","block3","target_Trial_rec","0","300","0","0","57","1","524","1","+","0","1","Rec_00_white.png","853","1","","1053","1","Rec_90_white.png","1906","1","","1053","1","correct_grey.png","2325","0","0","0"
"2024-02-11","15:59:16","1","5c48a0f696d59b000183e158","1","6.6.1","7","12","block3","invalid_Trial_tri","0","300","0","0","0","1","700","1","+","0","1","Tri_00_white.png","854","1","","1054","1","Rec_90_white.png","1907","1","","1054","1","correct_grey.png","2500","0","0","0"
"2024-02-11","15:59:16","1","5c48a0f696d59b000183e158","1","6.6.1","7","13","block3","target_Trial_tri","0","300","0","0","57","1","478","1","+","0","1","Tri_00_white.png","854","1","","1053","1","Tri_90_white.png","1906","1","","1053","1","correct_grey.png","2278","0","0","0"
"2024-02-11","15:59:16","1","5c48a0f696d59b000183e158","1","6.6.1","7","14","block3","invalid_Trial_rec","0","300","0","0","0","1","700","1","+","0","1","Rec_00_white.png","854","1","","1054","1","Tri_90_white.png","1907","1","","1054","1","correct_grey.png","2500","0","0","0"
"2024-02-11","15:59:16","1","5c48a0f696d59b000183e158","1","6.6.1","7","15","block3","invalid_Trial_tri","0","300","0","0","0","1","700","1","+","0","1","Tri_00_white.png","854","1","","1053","1","Rec_90_white.png","1906","1","","1053","1","correct_grey.png","2500","0","0","0"
"2024-02-11","15:59:16","1","5c48a0f696d59b000183e158","1","6.6.1","7","16","block3","target_Trial_rec","0","300","0","0","57","1","397","1","+","0","1","Rec_00_white.png","853","1","","1053","1","Rec_90_white.png","1907","1","","1053","1","correct_grey.png","2198","0","0","0"
"2024-02-11","15:59:16","1","5c48a0f696d59b000183e158","1","6.6.1","7","17","block3","target_Trial_tri","0","300","0","0","57","1","449","1","+","0","1","Tri_00_white.png","853","1","","1053","1","Tri_90_white.png","1906","1","","1053","1","correct_grey.png","2250","0","0","0"
"2024-02-11","15:59:16","1","5c48a0f696d59b000183e158","1","6.6.1","7","18","block3","invalid_Trial_rec","0","300","0","0","0","1","700","1","+","0","1","Rec_00_white.png","854","1","","1053","1","Tri_90_white.png","1906","1","","1053","1","correct_grey.png","2500","0","0","0"
"2024-02-11","15:59:16","1","5c48a0f696d59b000183e158","1","6.6.1","7","19","block3","target_Trial_rec","0","300","0","0","57","1","444","1","+","0","1","Rec_00_white.png","853","1","","1054","1","Rec_90_white.png","1906","1","","1054","1","correct_grey.png","2244","0","0","0"
"2024-02-11","15:59:16","1","5c48a0f696d59b000183e158","1","6.6.1","7","20","block3","target_Trial_rec","0","300","0","0","57","1","390","1","+","0","1","Rec_00_white.png","854","1","","1053","1","Rec_90_white.png","1907","1","","1053","1","correct_grey.png","2190","0","0","0"
"2024-02-11","15:59:16","1","5c48a0f696d59b000183e158","1","6.6.1","7","21","block3","target_Trial_rec","0","300","0","0","57","1","410","1","+","0","1","Rec_00_white.png","853","1","","1053","1","Rec_90_white.png","1907","1","","1053","1","correct_grey.png","2210","0","0","0"
"2024-02-11","15:59:16","1","5c48a0f696d59b000183e158","1","6.6.1","7","22","block3","target_Trial_rec","0","300","0","0","57","1","390","1","+","0","1","Rec_00_white.png","854","1","","1053","1","Rec_90_white.png","1907","1","","1053","1","correct_grey.png","2191","0","0","0"
"2024-02-11","15:59:16","1","5c48a0f696d59b000183e158","1","6.6.1","7","23","block3","invalid_Trial_tri","0","300","0","0","0","1","700","1","+","0","1","Tri_00_white.png","854","1","","1054","1","Rec_90_white.png","1906","1","","1054","1","correct_grey.png","2501","0","0","0"
"2024-02-11","15:59:16","1","5c48a0f696d59b000183e158","1","6.6.1","7","24","block3","target_Trial_tri","0","300","0","0","57","1","451","1","+","0","1","Tri_00_white.png","854","1","","1054","1","Tri_90_white.png","1907","1","","1054","1","correct_grey.png","2251","0","0","0"
"2024-02-11","15:59:16","1","5c48a0f696d59b000183e158","1","6.6.1","7","25","block3","Break","0","0","0","0","57","1","8108","1","Please take a few seconds to rest your eyes.     When you're ready to continue, please press the spacebar.","0","0","0","0","0","0","0","0","0","0","0","0","0","0","0","0","0","0","0"
"2024-02-11","15:59:16","1","5c48a0f696d59b000183e158","1","6.6.1","7","26","block3","invalid_Trial_rec","0","300","0","0","0","1","700","1","+","1","1","Rec_00_white.png","854","1","","1054","1","Tri_90_white.png","1907","1","","1054","1","correct_grey.png","2501","0","0","0"
"2024-02-11","15:59:16","1","5c48a0f696d59b000183e158","1","6.6.1","7","27","block3","target_Trial_rec","0","300","0","0","57","1","446","1","+","0","1","Rec_00_white.png","853","1","","1053","1","Rec_90_white.png","1907","1","","1053","1","correct_grey.png","2246","0","0","0"
"2024-02-11","15:59:16","1","5c48a0f696d59b000183e158","1","6.6.1","7","28","block3","target_Trial_tri","0","300","0","0","57","1","423","1","+","0","1","Tri_00_white.png","854","1","","1053","1","Tri_90_white.png","1906","1","","1053","1","correct_grey.png","2223","0","0","0"
"2024-02-11","15:59:16","1","5c48a0f696d59b000183e158","1","6.6.1","7","29","block3","invalid_Trial_tri","0","300","0","0","0","1","700","1","+","0","1","Tri_00_white.png","853","1","","1053","1","Rec_90_white.png","1907","1","","1053","1","correct_grey.png","2501","0","0","0"
"2024-02-11","15:59:16","1","5c48a0f696d59b000183e158","1","6.6.1","7","30","block3","invalid_Trial_tri","0","300","0","0","0","1","700","1","+","0","1","Tri_00_white.png","854","1","","1054","1","Rec_90_white.png","1907","1","","1054","1","correct_grey.png","2500","0","0","0"
"2024-02-11","15:59:16","1","5c48a0f696d59b000183e158","1","6.6.1","7","31","block3","target_Trial_rec","0","300","0","0","57","1","369","1","+","0","1","Rec_00_white.png","853","1","","1054","1","Rec_90_white.png","1906","1","","1054","1","correct_grey.png","2169","0","0","0"
"2024-02-11","15:59:16","1","5c48a0f696d59b000183e158","1","6.6.1","7","32","block3","target_Trial_tri","0","300","0","0","57","1","429","1","+","0","1","Tri_00_white.png","854","1","","1053","1","Tri_90_white.png","1907","1","","1053","1","correct_grey.png","2230","0","0","0"
"2024-02-11","15:59:16","1","5c48a0f696d59b000183e158","1","6.6.1","7","33","block3","target_Trial_rec","0","300","0","0","57","1","375","1","+","0","1","Rec_00_white.png","854","1","","1053","1","Rec_90_white.png","1906","1","","1053","1","correct_grey.png","2176","0","0","0"
"2024-02-11","15:59:16","1","5c48a0f696d59b000183e158","1","6.6.1","7","34","block3","target_Trial_tri","0","300","0","0","57","1","412","1","+","0","1","Tri_00_white.png","854","1","","1054","1","Tri_90_white.png","1906","1","","1054","1","correct_grey.png","2213","0","0","0"
"2024-02-11","15:59:16","1","5c48a0f696d59b000183e158","1","6.6.1","7","35","block3","target_Trial_tri","0","300","0","0","57","1","417","1","+","0","1","Tri_00_white.png","854","1","","1053","1","Tri_90_white.png","1907","1","","1053","1","correct_grey.png","2218","0","0","0"
"2024-02-11","15:59:16","1","5c48a0f696d59b000183e158","1","6.6.1","7","36","block3","target_Trial_rec","0","300","0","0","57","1","381","1","+","0","1","Rec_00_white.png","854","1","","1053","1","Rec_90_white.png","1907","1","","1053","1","correct_grey.png","2181","0","0","0"
"2024-02-11","15:59:16","1","5c48a0f696d59b000183e158","1","6.6.1","7","37","block3","target_Trial_rec","0","300","0","0","57","1","403","1","+","0","1","Rec_00_white.png","853","1","","1053","1","Rec_90_white.png","1907","1","","1053","1","correct_grey.png","2204","0","0","0"
"2024-02-11","15:59:16","1","5c48a0f696d59b000183e158","1","6.6.1","7","38","block3","target_Trial_tri","0","300","0","0","57","1","383","1","+","0","1","Tri_00_white.png","854","1","","1053","1","Tri_90_white.png","1906","1","","1053","1","correct_grey.png","2184","0","0","0"
"2024-02-11","15:59:16","1","5c48a0f696d59b000183e158","1","6.6.1","7","39","block3","invalid_Trial_tri","0","300","0","0","0","1","700","1","+","0","1","Tri_00_white.png","854","1","","1053","1","Rec_90_white.png","1907","1","","1053","1","correct_grey.png","2500","0","0","0"
"2024-02-11","15:59:16","1","5c48a0f696d59b000183e158","1","6.6.1","7","40","block3","invalid_Trial_rec","0","300","0","0","0","1","700","1","+","0","1","Rec_00_white.png","854","1","","1053","1","Tri_90_white.png","1906","1","","1053","1","correct_grey.png","2500","0","0","0"
"2024-02-11","15:59:16","1","5c48a0f696d59b000183e158","1","6.6.1","7","41","block3","target_Trial_rec","0","300","0","0","57","1","434","1","+","0","1","Rec_00_white.png","854","1","","1053","1","Rec_90_white.png","1907","1","","1053","1","correct_grey.png","2234","0","0","0"
"2024-02-11","15:59:16","1","5c48a0f696d59b000183e158","1","6.6.1","7","42","block3","target_Trial_tri","0","300","0","0","57","1","476","1","+","0","1","Tri_00_white.png","854","1","","1053","1","Tri_90_white.png","1906","1","","1053","1","correct_grey.png","2277","0","0","0"
"2024-02-11","15:59:16","1","5c48a0f696d59b000183e158","1","6.6.1","7","43","block3","target_Trial_rec","0","300","0","0","57","1","414","1","+","0","1","Rec_00_white.png","854","1","","1054","1","Rec_90_white.png","1907","1","","1054","1","correct_grey.png","2214","0","0","0"
"2024-02-11","15:59:16","1","5c48a0f696d59b000183e158","1","6.6.1","7","44","block3","target_Trial_tri","0","300","0","0","57","1","402","1","+","0","1","Tri_00_white.png","854","1","","1054","1","Tri_90_white.png","1906","1","","1054","1","correct_grey.png","2203","0","0","0"
"2024-02-11","15:59:16","1","5c48a0f696d59b000183e158","1","6.6.1","7","45","block3","target_Trial_tri","0","300","0","0","57","1","430","1","+","0","1","Tri_00_white.png","854","1","","1053","1","Tri_90_white.png","1907","1","","1053","1","correct_grey.png","2230","0","0","0"
"2024-02-11","15:59:16","1","5c48a0f696d59b000183e158","1","6.6.1","7","46","block3","target_Trial_rec","0","300","0","0","57","1","376","1","+","0","1","Rec_00_white.png","854","1","","1053","1","Rec_90_white.png","1906","1","","1053","1","correct_grey.png","2176","0","0","0"
"2024-02-11","15:59:16","1","5c48a0f696d59b000183e158","1","6.6.1","7","47","block3","invalid_Trial_rec","0","300","0","0","0","1","700","1","+","0","1","Rec_00_white.png","854","1","","1053","1","Tri_90_white.png","1907","1","","1053","1","correct_grey.png","2501","0","0","0"
"2024-02-11","15:59:16","1","5c48a0f696d59b000183e158","1","6.6.1","7","48","block3","invalid_Trial_rec","0","300","0","0","0","1","700","1","+","0","1","Rec_00_white.png","854","1","","1054","1","Tri_90_white.png","1907","1","","1054","1","correct_grey.png","2501","0","0","0"
"2024-02-11","15:59:16","1","5c48a0f696d59b000183e158","1","6.6.1","7","49","block3","invalid_Trial_tri","0","300","0","0","0","1","700","1","+","0","1","Tri_00_white.png","854","1","","1054","1","Rec_90_white.png","1906","1","","1054","1","correct_grey.png","2500","0","0","0"
"2024-02-11","15:59:16","1","5c48a0f696d59b000183e158","1","6.6.1","7","50","block3","Break","0","0","0","0","57","1","6435","1","Please take a few seconds to rest your eyes.     When you're ready to continue, please press the spacebar.","0","0","0","0","0","0","0","0","0","0","0","0","0","0","0","0","0","0","0"
"2024-02-11","15:59:16","1","5c48a0f696d59b000183e158","1","6.6.1","7","51","block3","target_Trial_tri","0","300","0","0","57","1","391","1","+","0","1","Tri_00_white.png","854","1","","1053","1","Tri_90_white.png","1907","1","","1053","1","correct_grey.png","2192","0","0","0"
"2024-02-11","15:59:16","1","5c48a0f696d59b000183e158","1","6.6.1","7","52","block3","target_Trial_rec","0","300","0","0","57","1","388","1","+","0","1","Rec_00_white.png","854","1","","1053","1","Rec_90_white.png","1907","1","","1053","1","correct_grey.png","2189","0","0","0"
"2024-02-11","15:59:16","1","5c48a0f696d59b000183e158","1","6.6.1","7","53","block3","invalid_Trial_rec","0","300","0","0","0","1","700","1","+","0","1","Rec_00_white.png","854","1","","1054","1","Tri_90_white.png","1906","1","","1054","1","correct_grey.png","2500","0","0","0"
"2024-02-11","15:59:16","1","5c48a0f696d59b000183e158","1","6.6.1","7","54","block3","target_Trial_rec","0","300","0","0","57","1","400","1","+","0","1","Rec_00_white.png","854","1","","1054","1","Rec_90_white.png","1907","1","","1054","1","correct_grey.png","2200","0","0","0"
"2024-02-11","15:59:16","1","5c48a0f696d59b000183e158","1","6.6.1","7","55","block3","invalid_Trial_tri","0","300","0","0","0","1","700","1","+","0","1","Tri_00_white.png","854","1","","1053","1","Rec_90_white.png","1907","1","","1053","1","correct_grey.png","2500","0","0","0"
"2024-02-11","15:59:16","1","5c48a0f696d59b000183e158","1","6.6.1","7","56","block3","target_Trial_rec","0","300","0","0","57","1","418","1","+","0","1","Rec_00_white.png","854","1","","1053","1","Rec_90_white.png","1906","1","","1053","1","correct_grey.png","2219","0","0","0"
"2024-02-11","15:59:16","1","5c48a0f696d59b000183e158","1","6.6.1","7","57","block3","target_Trial_tri","0","300","0","0","57","1","501","1","+","0","1","Tri_00_white.png","854","1","","1054","1","Tri_90_white.png","1906","1","","1054","1","correct_grey.png","2302","0","0","0"
"2024-02-11","15:59:16","1","5c48a0f696d59b000183e158","1","6.6.1","7","58","block3","target_Trial_rec","0","300","0","0","57","1","408","1","+","0","1","Rec_00_white.png","854","1","","1053","1","Rec_90_white.png","1906","1","","1053","1","correct_grey.png","2209","0","0","0"
"2024-02-11","15:59:16","1","5c48a0f696d59b000183e158","1","6.6.1","7","59","block3","target_Trial_rec","0","300","0","0","57","1","388","1","+","0","1","Rec_00_white.png","854","1","","1054","1","Rec_90_white.png","1907","1","","1054","1","correct_grey.png","2188","0","0","0"
"2024-02-11","15:59:16","1","5c48a0f696d59b000183e158","1","6.6.1","7","60","block3","invalid_Trial_tri","0","300","0","0","0","1","700","1","+","1","1","Tri_00_white.png","854","1","","1054","1","Rec_90_white.png","1908","1","","1054","1","correct_grey.png","2501","0","0","0"
"2024-02-11","15:59:16","1","5c48a0f696d59b000183e158","1","6.6.1","7","61","block3","target_Trial_rec","0","300","0","0","57","1","375","1","+","0","1","Rec_00_white.png","854","1","","1053","1","Rec_90_white.png","1906","1","","1053","1","correct_grey.png","2175","0","0","0"
"2024-02-11","15:59:16","1","5c48a0f696d59b000183e158","1","6.6.1","7","62","block3","invalid_Trial_tri","0","300","0","0","57","0","484","1","+","0","1","Tri_00_white.png","853","1","","1053","1","Rec_90_white.png","1907","1","","1053","1","incorrect_grey.png","2284","0","0","0"
"2024-02-11","15:59:16","1","5c48a0f696d59b000183e158","1","6.6.1","7","63","block3","target_Trial_tri","0","300","0","0","57","1","453","1","+","0","1","Tri_00_white.png","854","1","","1053","1","Tri_90_white.png","1906","1","","1053","1","correct_grey.png","2254","0","0","0"
"2024-02-11","15:59:16","1","5c48a0f696d59b000183e158","1","6.6.1","7","64","block3","target_Trial_tri","0","300","0","0","57","1","431","1","+","0","1","Tri_00_white.png","853","1","","1053","1","Tri_90_white.png","1906","1","","1053","1","correct_grey.png","2232","0","0","0"
"2024-02-11","15:59:16","1","5c48a0f696d59b000183e158","1","6.6.1","7","65","block3","target_Trial_tri","0","300","0","0","57","1","427","1","+","0","1","Tri_00_white.png","853","1","","1053","1","Tri_90_white.png","1907","1","","1053","1","correct_grey.png","2227","0","0","0"
"2024-02-11","15:59:16","1","5c48a0f696d59b000183e158","1","6.6.1","7","66","block3","invalid_Trial_tri","0","300","0","0","0","1","700","1","+","0","1","Tri_00_white.png","853","1","","1053","1","Rec_90_white.png","1907","1","","1053","1","correct_grey.png","2501","0","0","0"
"2024-02-11","15:59:16","1","5c48a0f696d59b000183e158","1","6.6.1","7","67","block3","target_Trial_tri","0","300","0","0","57","1","405","1","+","0","1","Tri_00_white.png","854","1","","1053","1","Tri_90_white.png","1906","1","","1053","1","correct_grey.png","2206","0","0","0"
"2024-02-11","15:59:16","1","5c48a0f696d59b000183e158","1","6.6.1","7","68","block3","invalid_Trial_rec","0","300","0","0","0","1","700","1","+","1","1","Rec_00_white.png","854","1","","1053","1","Tri_90_white.png","1907","1","","1053","1","correct_grey.png","2500","0","0","0"
"2024-02-11","15:59:16","1","5c48a0f696d59b000183e158","1","6.6.1","7","69","block3","invalid_Trial_rec","0","300","0","0","0","1","700","1","+","0","1","Rec_00_white.png","854","1","","1053","1","Tri_90_white.png","1907","1","","1053","1","correct_grey.png","2501","0","0","0"
"2024-02-11","15:59:16","1","5c48a0f696d59b000183e158","1","6.6.1","7","70","block3","target_Trial_tri","0","300","0","0","57","1","415","1","+","0","1","Tri_00_white.png","854","1","","1053","1","Tri_90_white.png","1906","1","","1053","1","correct_grey.png","2216","0","0","0"
"2024-02-11","15:59:16","1","5c48a0f696d59b000183e158","1","6.6.1","7","71","block3","invalid_Trial_rec","0","300","0","0","0","1","700","1","+","0","1","Rec_00_white.png","853","1","","1054","1","Tri_90_white.png","1906","1","","1054","1","correct_grey.png","2500","0","0","0"
"2024-02-11","15:59:16","1","5c48a0f696d59b000183e158","1","6.6.1","7","72","block3","target_Trial_rec","0","300","0","0","57","1","418","1","+","0","1","Rec_00_white.png","854","1","","1053","1","Rec_90_white.png","1906","1","","1053","1","correct_grey.png","2219","0","0","0"
"2024-02-11","15:59:16","1","5c48a0f696d59b000183e158","1","6.6.1","7","73","block3","target_Trial_tri","0","300","0","0","57","1","405","1","+","0","1","Tri_00_white.png","854","1","","1053","1","Tri_90_white.png","1907","1","","1053","1","correct_grey.png","2205","0","0","0"
"2024-02-11","15:59:16","1","5c48a0f696d59b000183e158","1","6.6.1","7","74","block3","target_Trial_rec","0","300","0","0","57","1","432","1","+","0","1","Rec_00_white.png","854","1","","1053","1","Rec_90_white.png","1906","1","","1053","1","correct_grey.png","2233","0","0","0"
"2024-02-11","15:59:16","1","5c48a0f696d59b000183e158","1","6.6.1","7","75","block3","Break","0","0","0","0","57","1","2683","1","Please take a few seconds to rest your eyes.     When you're ready to continue, please press the spacebar.","0","0","0","0","0","0","0","0","0","0","0","0","0","0","0","0","0","0","0"
"2024-02-11","15:59:16","1","5c48a0f696d59b000183e158","1","6.6.1","7","76","block3","target_Trial_tri","0","300","0","0","57","1","437","1","+","0","1","Tri_00_white.png","854","1","","1053","1","Tri_90_white.png","1906","1","","1053","1","correct_grey.png","2238","0","0","0"
"2024-02-11","15:59:16","1","5c48a0f696d59b000183e158","1","6.6.1","7","77","block3","invalid_Trial_tri","0","300","0","0","0","1","700","1","+","0","1","Tri_00_white.png","854","1","","1054","1","Rec_90_white.png","1907","1","","1054","1","correct_grey.png","2501","0","0","0"
"2024-02-11","15:59:16","1","5c48a0f696d59b000183e158","1","6.6.1","7","78","block3","target_Trial_rec","0","300","0","0","57","1","401","1","+","0","1","Rec_00_white.png","854","1","","1053","1","Rec_90_white.png","1907","1","","1053","1","correct_grey.png","2202","0","0","0"
"2024-02-11","15:59:16","1","5c48a0f696d59b000183e158","1","6.6.1","7","79","block3","target_Trial_tri","0","300","0","0","57","1","383","1","+","0","1","Tri_00_white.png","854","1","","1054","1","Tri_90_white.png","1907","1","","1054","1","correct_grey.png","2183","0","0","0"
"2024-02-11","15:59:16","1","5c48a0f696d59b000183e158","1","6.6.1","7","80","block3","invalid_Trial_tri","0","300","0","0","0","1","700","1","+","0","1","Tri_00_white.png","854","1","","1053","1","Rec_90_white.png","1907","1","","1053","1","correct_grey.png","2500","0","0","0"
"2024-02-11","15:59:16","1","5c48a0f696d59b000183e158","1","6.6.1","7","81","block3","target_Trial_rec","0","300","0","0","57","1","395","1","+","0","1","Rec_00_white.png","854","1","","1053","1","Rec_90_white.png","1906","1","","1053","1","correct_grey.png","2195","0","0","0"
"2024-02-11","15:59:16","1","5c48a0f696d59b000183e158","1","6.6.1","7","82","block3","invalid_Trial_rec","0","300","0","0","0","1","700","1","+","0","1","Rec_00_white.png","854","1","","1054","1","Tri_90_white.png","1907","1","","1054","1","correct_grey.png","2501","0","0","0"
"2024-02-11","15:59:16","1","5c48a0f696d59b000183e158","1","6.6.1","7","83","block3","invalid_Trial_tri","0","300","0","0","0","1","700","1","+","0","1","Tri_00_white.png","854","1","","1054","1","Rec_90_white.png","1907","1","","1054","1","correct_grey.png","2501","0","0","0"
"2024-02-11","15:59:16","1","5c48a0f696d59b000183e158","1","6.6.1","7","84","block3","target_Trial_rec","0","300","0","0","57","1","421","1","+","0","1","Rec_00_white.png","854","1","","1053","1","Rec_90_white.png","1907","1","","1053","1","correct_grey.png","2221","0","0","0"
"2024-02-11","15:59:16","1","5c48a0f696d59b000183e158","1","6.6.1","7","85","block3","target_Trial_rec","0","300","0","0","57","1","434","1","+","0","1","Rec_00_white.png","854","1","","1054","1","Rec_90_white.png","1906","1","","1054","1","correct_grey.png","2235","0","0","0"
"2024-02-11","15:59:16","1","5c48a0f696d59b000183e158","1","6.6.1","7","86","block3","target_Trial_tri","0","300","0","0","57","1","429","1","+","0","1","Tri_00_white.png","854","1","","1053","1","Tri_90_white.png","1907","1","","1053","1","correct_grey.png","2230","0","0","0"
"2024-02-11","15:59:16","1","5c48a0f696d59b000183e158","1","6.6.1","7","87","block3","target_Trial_tri","0","300","0","0","57","1","399","1","+","0","1","Tri_00_white.png","854","1","","1054","1","Tri_90_white.png","1907","1","","1054","1","correct_grey.png","2200","0","0","0"
"2024-02-11","15:59:16","1","5c48a0f696d59b000183e158","1","6.6.1","7","88","block3","invalid_Trial_rec","0","300","0","0","0","1","700","1","+","0","1","Rec_00_white.png","854","1","","1053","1","Tri_90_white.png","1907","1","","1053","1","correct_grey.png","2501","0","0","0"
"2024-02-11","15:59:16","1","5c48a0f696d59b000183e158","1","6.6.1","7","89","block3","target_Trial_rec","0","300","0","0","57","1","490","1","+","0","1","Rec_00_white.png","854","1","","1053","1","Rec_90_white.png","1906","1","","1053","1","correct_grey.png","2291","0","0","0"
"2024-02-11","15:59:16","1","5c48a0f696d59b000183e158","1","6.6.1","7","90","block3","target_Trial_tri","0","300","0","0","57","1","433","1","+","0","1","Tri_00_white.png","854","1","","1054","1","Tri_90_white.png","1906","1","","1054","1","correct_grey.png","2234","0","0","0"
"2024-02-11","15:59:16","1","5c48a0f696d59b000183e158","1","6.6.1","7","91","block3","invalid_Trial_rec","0","300","0","0","0","1","700","1","+","0","1","Rec_00_white.png","853","1","","1053","1","Tri_90_white.png","1906","1","","1053","1","correct_grey.png","2501","0","0","0"
"2024-02-11","15:59:16","1","5c48a0f696d59b000183e158","1","6.6.1","7","92","block3","invalid_Trial_rec","0","300","0","0","0","1","700","1","+","0","1","Rec_00_white.png","854","1","","1053","1","Tri_90_white.png","1907","1","","1053","1","correct_grey.png","2500","0","0","0"
"2024-02-11","15:59:16","1","5c48a0f696d59b000183e158","1","6.6.1","7","93","block3","target_Trial_rec","0","300","0","0","57","1","387","1","+","0","1","Rec_00_white.png","854","1","","1053","1","Rec_90_white.png","1908","1","","1053","1","correct_grey.png","2187","0","0","0"
"2024-02-11","15:59:16","1","5c48a0f696d59b000183e158","1","6.6.1","7","94","block3","target_Trial_tri","0","300","0","0","57","1","431","1","+","0","1","Tri_00_white.png","854","1","","1053","1","Tri_90_white.png","1906","1","","1053","1","correct_grey.png","2231","0","0","0"
"2024-02-11","15:59:16","1","5c48a0f696d59b000183e158","1","6.6.1","7","95","block3","invalid_Trial_tri","0","300","0","0","0","1","700","1","+","0","1","Tri_00_white.png","854","1","","1054","1","Rec_90_white.png","1906","1","","1054","1","correct_grey.png","2501","0","0","0"
"2024-02-11","15:59:16","1","5c48a0f696d59b000183e158","1","6.6.1","7","96","block3","target_Trial_tri","0","300","0","0","57","1","393","1","+","0","1","Tri_00_white.png","854","1","","1053","1","Tri_90_white.png","1906","1","","1053","1","correct_grey.png","2194","0","0","0"
"2024-02-11","15:59:16","1","5c48a0f696d59b000183e158","1","6.6.1","7","97","block3","target_Trial_rec","0","300","0","0","57","1","389","1","+","0","1","Rec_00_white.png","854","1","","1054","1","Rec_90_white.png","1907","1","","1054","1","correct_grey.png","2189","0","0","0"
"2024-02-11","15:59:16","1","5c48a0f696d59b000183e158","1","6.6.1","7","98","block3","target_Trial_rec","0","300","0","0","57","1","409","1","+","0","1","Rec_00_white.png","853","1","","1053","1","Rec_90_white.png","1906","1","","1053","1","correct_grey.png","2210","0","0","0"
"2024-02-11","15:59:16","1","5c48a0f696d59b000183e158","1","6.6.1","7","99","block3","target_Trial_tri","0","300","0","0","57","1","388","1","+","0","1","Tri_00_white.png","854","1","","1053","1","Tri_90_white.png","1906","1","","1053","1","correct_grey.png","2189","0","0","0"
"2024-02-11","15:59:16","1","5c48a0f696d59b000183e158","1","6.6.1","7","100","block3","Break","0","0","0","0","57","1","1584","1","Please take a few seconds to rest your eyes.     When you're ready to continue, please press the spacebar.","1","0","0","0","0","0","0","0","0","0","0","0","0","0","0","0","0","0","0"
"2024-02-11","15:59:16","1","5c48a0f696d59b000183e158","1","6.6.1","7","101","block3","invalid_Trial_rec","0","300","0","0","0","1","700","1","+","0","1","Rec_00_white.png","854","1","","1053","1","Tri_90_white.png","1907","1","","1053","1","correct_grey.png","2501","0","0","0"
"2024-02-11","15:59:16","1","5c48a0f696d59b000183e158","1","6.6.1","7","102","block3","invalid_Trial_tri","0","300","0","0","0","1","700","1","+","0","1","Tri_00_white.png","854","1","","1054","1","Rec_90_white.png","1907","1","","1054","1","correct_grey.png","2500","0","0","0"
"2024-02-11","15:59:16","1","5c48a0f696d59b000183e158","1","6.6.1","7","103","block3","invalid_Trial_rec","0","300","0","0","0","1","700","1","+","0","1","Rec_00_white.png","854","1","","1054","1","Tri_90_white.png","1906","1","","1054","1","correct_grey.png","2501","0","0","0"
"2024-02-11","15:59:16","1","5c48a0f696d59b000183e158","1","6.6.1","7","104","block3","target_Trial_rec","0","300","0","0","57","1","366","1","+","0","1","Rec_00_white.png","854","1","","1053","1","Rec_90_white.png","1906","1","","1053","1","correct_grey.png","2167","0","0","0"
"2024-02-11","15:59:16","1","5c48a0f696d59b000183e158","1","6.6.1","7","105","block3","invalid_Trial_tri","0","300","0","0","0","1","700","1","+","0","1","Tri_00_white.png","854","1","","1054","1","Rec_90_white.png","1907","1","","1054","1","correct_grey.png","2501","0","0","0"
"2024-02-11","15:59:16","1","5c48a0f696d59b000183e158","1","6.6.1","7","106","block3","target_Trial_tri","0","300","0","0","57","1","394","1","+","0","1","Tri_00_white.png","854","1","","1053","1","Tri_90_white.png","1906","1","","1053","1","correct_grey.png","2195","0","0","0"
"2024-02-11","15:59:16","1","5c48a0f696d59b000183e158","1","6.6.1","7","107","block3","invalid_Trial_rec","0","300","0","0","0","1","700","1","+","0","1","Rec_00_white.png","854","1","","1053","1","Tri_90_white.png","1906","1","","1053","1","correct_grey.png","2500","0","0","0"
"2024-02-11","15:59:16","1","5c48a0f696d59b000183e158","1","6.6.1","7","108","block3","target_Trial_rec","0","300","0","0","57","1","406","1","+","0","1","Rec_00_white.png","853","1","","1054","1","Rec_90_white.png","1906","1","","1054","1","correct_grey.png","2206","0","0","0"
"2024-02-11","15:59:16","1","5c48a0f696d59b000183e158","1","6.6.1","7","109","block3","target_Trial_rec","0","300","0","0","57","1","434","1","+","0","1","Rec_00_white.png","854","1","","1053","1","Rec_90_white.png","1907","1","","1053","1","correct_grey.png","2234","0","0","0"
"2024-02-11","15:59:16","1","5c48a0f696d59b000183e158","1","6.6.1","7","110","block3","invalid_Trial_tri","0","300","0","0","0","1","700","1","+","0","1","Tri_00_white.png","853","1","","1053","1","Rec_90_white.png","1906","1","","1053","1","correct_grey.png","2501","0","0","0"
"2024-02-11","15:59:16","1","5c48a0f696d59b000183e158","1","6.6.1","7","111","block3","target_Trial_rec","0","300","0","0","57","1","420","1","+","0","1","Rec_00_white.png","854","1","","1053","1","Rec_90_white.png","1906","1","","1053","1","correct_grey.png","2221","0","0","0"
"2024-02-11","15:59:16","1","5c48a0f696d59b000183e158","1","6.6.1","7","112","block3","invalid_Trial_rec","0","300","0","0","0","1","700","1","+","0","1","Rec_00_white.png","853","1","","1054","1","Tri_90_white.png","1907","1","","1054","1","correct_grey.png","2500","0","0","0"
"2024-02-11","15:59:16","1","5c48a0f696d59b000183e158","1","6.6.1","7","113","block3","invalid_Trial_tri","0","300","0","0","0","1","700","1","+","0","1","Tri_00_white.png","854","1","","1054","1","Rec_90_white.png","1906","1","","1054","1","correct_grey.png","2500","0","0","0"
"2024-02-11","15:59:16","1","5c48a0f696d59b000183e158","1","6.6.1","7","114","block3","target_Trial_tri","0","300","0","0","57","1","414","1","+","0","1","Tri_00_white.png","853","1","","1054","1","Tri_90_white.png","1907","1","","1054","1","correct_grey.png","2214","0","0","0"
"2024-02-11","15:59:16","1","5c48a0f696d59b000183e158","1","6.6.1","7","115","block3","target_Trial_tri","0","300","0","0","57","1","400","1","+","0","1","Tri_00_white.png","854","1","","1053","1","Tri_90_white.png","1907","1","","1053","1","correct_grey.png","2200","0","0","0"
"2024-02-11","15:59:16","1","5c48a0f696d59b000183e158","1","6.6.1","7","116","block3","target_Trial_tri","0","300","0","0","57","1","456","1","+","0","1","Tri_00_white.png","853","1","","1053","1","Tri_90_white.png","1906","1","","1053","1","correct_grey.png","2257","0","0","0"
"2024-02-11","15:59:16","1","5c48a0f696d59b000183e158","1","6.6.1","7","117","block3","target_Trial_rec","0","300","0","0","57","1","433","1","+","0","1","Rec_00_white.png","854","1","","1053","1","Rec_90_white.png","1907","1","","1053","1","correct_grey.png","2234","0","0","0"
"2024-02-11","15:59:16","1","5c48a0f696d59b000183e158","1","6.6.1","7","118","block3","target_Trial_tri","0","300","0","0","57","1","405","1","+","0","1","Tri_00_white.png","853","1","","1053","1","Tri_90_white.png","1906","1","","1053","1","correct_grey.png","2205","0","0","0"
"2024-02-11","15:59:16","1","5c48a0f696d59b000183e158","1","6.6.1","7","119","block3","target_Trial_rec","0","300","0","0","57","1","384","1","+","0","1","Rec_00_white.png","854","1","","1053","1","Rec_90_white.png","1907","1","","1053","1","correct_grey.png","2185","0","0","0"
"2024-02-11","15:59:16","1","5c48a0f696d59b000183e158","1","6.6.1","7","120","block3","target_Trial_tri","0","300","0","0","57","1","404","1","+","0","1","Tri_00_white.png","853","1","","1054","1","Tri_90_white.png","1907","1","","1054","1","correct_grey.png","2205","0","0","0"
"2024-02-11","15:59:16","1","5c48a0f696d59b000183e158","1","6.6.1","7","121","block3","target_Trial_tri","0","300","0","0","57","1","384","1","+","0","1","Tri_00_white.png","854","1","","1053","1","Tri_90_white.png","1906","1","","1053","1","correct_grey.png","2184","0","0","0"
"2024-02-11","15:59:16","1","5c48a0f696d59b000183e158","1","6.6.1","7","122","block3","target_Trial_tri","0","300","0","0","57","1","429","1","+","0","1","Tri_00_white.png","854","1","","1053","1","Tri_90_white.png","1906","1","","1053","1","correct_grey.png","2229","0","0","0"
"2024-02-11","15:59:16","1","5c48a0f696d59b000183e158","1","6.6.1","7","123","block3","target_Trial_rec","0","300","0","0","57","1","393","1","+","0","1","Rec_00_white.png","853","1","","1054","1","Rec_90_white.png","1907","1","","1054","1","correct_grey.png","2194","0","0","0"
"2024-02-11","15:59:16","1","5c48a0f696d59b000183e158","1","6.6.1","7","124","block3","target_Trial_rec","0","300","0","0","57","1","390","1","+","0","1","Rec_00_white.png","854","1","","1054","1","Rec_90_white.png","1906","1","","1054","1","correct_grey.png","2190","0","0","0"
"2024-02-11","15:59:16","1","5c48a0f696d59b000183e158","1","6.6.1","8","1","block4","target_Trial_rec","0","300","0","0","57","1","377","1","+","0","1","Rec_00_white.png","854","1","","1053","1","Rec_90_white.png","1906","1","","1053","1","correct_grey.png","2178","0","0","0"
"2024-02-11","15:59:16","1","5c48a0f696d59b000183e158","1","6.6.1","8","2","block4","target_Trial_tri","0","300","0","0","57","1","414","1","+","1","1","Tri_00_white.png","853","1","","1053","1","Tri_90_white.png","1906","1","","1053","1","correct_grey.png","2215","0","0","0"
"2024-02-11","15:59:16","1","5c48a0f696d59b000183e158","1","6.6.1","8","3","block4","invalid_Trial_rec","0","300","0","0","0","1","700","1","+","0","1","Rec_00_white.png","854","1","","1054","1","Tri_90_white.png","1907","1","","1054","1","correct_grey.png","2500","0","0","0"
"2024-02-11","15:59:16","1","5c48a0f696d59b000183e158","1","6.6.1","8","4","block4","target_Trial_rec","0","300","0","0","57","1","416","1","+","0","1","Rec_00_white.png","853","1","","1053","1","Rec_90_white.png","1907","1","","1053","1","correct_grey.png","2216","0","0","0"
"2024-02-11","15:59:16","1","5c48a0f696d59b000183e158","1","6.6.1","8","5","block4","invalid_Trial_tri","0","300","0","0","0","1","700","1","+","0","1","Tri_00_white.png","854","1","","1053","1","Rec_90_white.png","1906","1","","1053","1","correct_grey.png","2501","0","0","0"
"2024-02-11","15:59:16","1","5c48a0f696d59b000183e158","1","6.6.1","8","6","block4","invalid_Trial_rec","0","300","0","0","0","1","700","1","+","0","1","Rec_00_white.png","853","1","","1053","1","Tri_90_white.png","1906","1","","1053","1","correct_grey.png","2500","0","0","0"
"2024-02-11","15:59:16","1","5c48a0f696d59b000183e158","1","6.6.1","8","7","block4","target_Trial_tri","0","300","0","0","57","1","603","1","+","0","1","Tri_00_white.png","854","1","","1053","1","Tri_90_white.png","1906","1","","1053","1","correct_grey.png","2405","0","0","0"
"2024-02-11","15:59:16","1","5c48a0f696d59b000183e158","1","6.6.1","8","8","block4","target_Trial_rec","0","300","0","0","57","1","430","1","+","0","1","Rec_00_white.png","854","1","","1057","1","Rec_90_white.png","1907","1","","1057","1","correct_grey.png","2231","0","0","0"
"2024-02-11","15:59:16","1","5c48a0f696d59b000183e158","1","6.6.1","8","9","block4","invalid_Trial_tri","0","300","0","0","0","1","700","1","+","0","1","Tri_00_white.png","854","1","","1053","1","Rec_90_white.png","1907","1","","1053","1","correct_grey.png","2501","0","0","0"
"2024-02-11","15:59:16","1","5c48a0f696d59b000183e158","1","6.6.1","8","10","block4","invalid_Trial_rec","0","300","0","0","0","1","700","1","+","0","1","Rec_00_white.png","854","1","","1053","1","Tri_90_white.png","1907","1","","1053","1","correct_grey.png","2501","0","0","0"
"2024-02-11","15:59:16","1","5c48a0f696d59b000183e158","1","6.6.1","8","11","block4","invalid_Trial_tri","0","300","0","0","0","1","700","1","+","0","1","Tri_00_white.png","854","1","","1053","1","Rec_90_white.png","1906","1","","1053","1","correct_grey.png","2501","0","0","0"
"2024-02-11","15:59:16","1","5c48a0f696d59b000183e158","1","6.6.1","8","12","block4","target_Trial_tri","0","300","0","0","57","1","424","1","+","0","1","Tri_00_white.png","854","1","","1054","1","Tri_90_white.png","1906","1","","1054","1","correct_grey.png","2225","0","0","0"
"2024-02-11","15:59:16","1","5c48a0f696d59b000183e158","1","6.6.1","8","13","block4","target_Trial_tri","0","300","0","0","57","1","628","1","+","0","1","Tri_00_white.png","854","1","","1054","1","Tri_90_white.png","1906","1","","1054","1","correct_grey.png","2430","0","0","0"
"2024-02-11","15:59:16","1","5c48a0f696d59b000183e158","1","6.6.1","8","14","block4","invalid_Trial_rec","0","300","0","0","0","1","700","1","+","0","1","Rec_00_white.png","854","1","","1053","1","Tri_90_white.png","1907","1","","1053","1","correct_grey.png","2500","0","0","0"
"2024-02-11","15:59:16","1","5c48a0f696d59b000183e158","1","6.6.1","8","15","block4","invalid_Trial_rec","0","300","0","0","0","1","700","1","+","0","1","Rec_00_white.png","854","1","","1054","1","Tri_90_white.png","1906","1","","1054","1","correct_grey.png","2500","0","0","0"
"2024-02-11","15:59:16","1","5c48a0f696d59b000183e158","1","6.6.1","8","16","block4","target_Trial_rec","0","300","0","0","57","1","446","1","+","0","1","Rec_00_white.png","853","1","","1054","1","Rec_90_white.png","1907","1","","1054","1","correct_grey.png","2247","0","0","0"
"2024-02-11","15:59:16","1","5c48a0f696d59b000183e158","1","6.6.1","8","17","block4","invalid_Trial_tri","0","300","0","0","0","1","700","1","+","0","1","Tri_00_white.png","854","1","","1053","1","Rec_90_white.png","1907","1","","1053","1","correct_grey.png","2501","0","0","0"
"2024-02-11","15:59:16","1","5c48a0f696d59b000183e158","1","6.6.1","8","18","block4","invalid_Trial_rec","0","300","0","0","0","1","700","1","+","0","1","Rec_00_white.png","854","1","","1054","1","Tri_90_white.png","1906","1","","1054","1","correct_grey.png","2501","0","0","0"
"2024-02-11","15:59:16","1","5c48a0f696d59b000183e158","1","6.6.1","8","19","block4","invalid_Trial_tri","0","300","0","0","0","1","700","1","+","0","1","Tri_00_white.png","854","1","","1054","1","Rec_90_white.png","1906","1","","1054","1","correct_grey.png","2501","0","0","0"
"2024-02-11","15:59:16","1","5c48a0f696d59b000183e158","1","6.6.1","8","20","block4","invalid_Trial_rec","0","300","0","0","0","1","700","1","+","0","1","Rec_00_white.png","853","1","","1054","1","Tri_90_white.png","1906","1","","1054","1","correct_grey.png","2501","0","0","0"
"2024-02-11","15:59:16","1","5c48a0f696d59b000183e158","1","6.6.1","8","21","block4","invalid_Trial_rec","0","300","0","0","0","1","700","1","+","0","1","Rec_00_white.png","853","1","","1053","1","Tri_90_white.png","1906","1","","1053","1","correct_grey.png","2501","0","0","0"
"2024-02-11","15:59:16","1","5c48a0f696d59b000183e158","1","6.6.1","8","22","block4","invalid_Trial_tri","0","300","0","0","0","1","700","1","+","0","1","Tri_00_white.png","853","1","","1053","1","Rec_90_white.png","1906","1","","1053","1","correct_grey.png","2501","0","0","0"
"2024-02-11","15:59:16","1","5c48a0f696d59b000183e158","1","6.6.1","8","23","block4","invalid_Trial_tri","0","300","0","0","0","1","700","1","+","0","1","Tri_00_white.png","853","1","","1053","1","Rec_90_white.png","1907","1","","1053","1","correct_grey.png","2500","0","0","0"
"2024-02-11","15:59:16","1","5c48a0f696d59b000183e158","1","6.6.1","8","24","block4","invalid_Trial_tri","0","300","0","0","0","1","700","1","+","0","1","Tri_00_white.png","854","1","","1053","1","Rec_90_white.png","1906","1","","1053","1","correct_grey.png","2500","0","0","0"
"2024-02-11","15:59:16","1","5c48a0f696d59b000183e158","1","6.6.1","8","25","block4","Break","0","0","0","0","57","1","1433","1","Please take a few seconds to rest your eyes.     When you're ready to continue, please press the spacebar.","0","0","0","0","0","0","0","0","0","0","0","0","0","0","0","0","0","0","0"
