"build","computer.platform","date","time","subject","blockcode","blocknum","trialcode","response","correct","consent","ProlificID","trialnum","trialcount","blockCount","blockorder","blockLabel","trialType","ruleStart","correctChoice","correctChoicePosition","responseSide","correctResponse","feedback","totalPoints","phaseCount","RTs","fixjit","submission"
"6.6.3","win","2025-01-08","10:18:58","66ba0c9bf26db3f44b274954","Consent","1","Consenttitle","","1","0","0","0","0","0","V/S","Volatile","","Circle","0","","","","0","0","0","0","0","0"
"6.6.3","win","2025-01-08","10:18:58","66ba0c9bf26db3f44b274954","Consent","1","consent_1option1","Agree","1","0","0","0","0","0","V/S","Volatile","","Circle","0","","","","0","0","0","0","0","0"
"6.6.3","win","2025-01-08","10:18:58","66ba0c9bf26db3f44b274954","Consent","1","consent_2option1","Agree","1","0","0","0","0","0","V/S","Volatile","","Circle","0","","","","0","0","0","0","0","0"
"6.6.3","win","2025-01-08","10:18:58","66ba0c9bf26db3f44b274954","Consent","1","consent_3option1","Agree","1","0","0","0","0","0","V/S","Volatile","","Circle","0","","","","0","0","0","0","0","0"
"6.6.3","win","2025-01-08","10:18:58","66ba0c9bf26db3f44b274954","Consent","1","consent_4option1","Agree","1","0","0","0","0","0","V/S","Volatile","","Circle","0","","","","0","0","0","0","0","0"
"6.6.3","win","2025-01-08","10:18:58","66ba0c9bf26db3f44b274954","Consent","1","consent_5option1","Agree","1","0","0","0","0","0","V/S","Volatile","","Circle","0","","","","0","0","0","0","0","0"
"6.6.3","win","2025-01-08","10:18:58","66ba0c9bf26db3f44b274954","Consent","1","consent_6option1","Agree","1","0","0","0","0","0","V/S","Volatile","","Circle","0","","","","0","0","0","0","0","0"
"6.6.3","win","2025-01-08","10:18:58","66ba0c9bf26db3f44b274954","Consent","1","consent_7option1","Agree","1","0","0","0","0","0","V/S","Volatile","","Circle","0","","","","0","0","0","0","0","0"
"6.6.3","win","2025-01-08","10:18:58","66ba0c9bf26db3f44b274954","Consent","1","consent_8option1","Agree","1","0","0","0","0","0","V/S","Volatile","","Circle","0","","","","0","0","0","0","0","0"
"6.6.3","win","2025-01-08","10:18:58","66ba0c9bf26db3f44b274954","Consent","1","consent_9option1","Agree","1","0","0","0","0","0","V/S","Volatile","","Circle","0","","","","0","0","0","0","0","0"
"6.6.3","win","2025-01-08","10:18:58","66ba0c9bf26db3f44b274954","Consent","1","consent_10option1","Agree","1","0","0","0","0","0","V/S","Volatile","","Circle","0","","","","0","0","0","0","0","0"
"6.6.3","win","2025-01-08","10:18:58","66ba0c9bf26db3f44b274954","Consent","1","consent_11option1","Agree","1","0","0","0","0","0","V/S","Volatile","","Circle","0","","","","0","0","0","0","0","0"
"6.6.3","win","2025-01-08","10:18:58","66ba0c9bf26db3f44b274954","Consent","1","consent_12option1","Agree","1","0","0","0","0","0","V/S","Volatile","","Circle","0","","","","0","0","0","0","0","0"
"6.6.3","win","2025-01-08","10:18:58","66ba0c9bf26db3f44b274954","ineligible","3","ineligibleT","Ctrl+'Q'","1","1","1","0","0","0","V/S","Volatile","","Circle","0","","","","0","0","0","0","0","0"
"6.6.3","win","2025-01-08","10:25:33","66ba0c9bf26db3f44b274954","Consent","1","Consenttitle","","1","0","0","0","0","0","V/S","Volatile","","Circle","0","","","","0","0","0","0","0","0"
"6.6.3","win","2025-01-08","10:25:33","66ba0c9bf26db3f44b274954","Consent","1","consent_1option1","Agree","1","0","0","0","0","0","V/S","Volatile","","Circle","0","","","","0","0","0","0","0","0"
"6.6.3","win","2025-01-08","10:25:33","66ba0c9bf26db3f44b274954","Consent","1","consent_2option1","Agree","1","0","0","0","0","0","V/S","Volatile","","Circle","0","","","","0","0","0","0","0","0"
"6.6.3","win","2025-01-08","10:25:33","66ba0c9bf26db3f44b274954","Consent","1","consent_3option1","Agree","1","0","0","0","0","0","V/S","Volatile","","Circle","0","","","","0","0","0","0","0","0"
"6.6.3","win","2025-01-08","10:25:33","66ba0c9bf26db3f44b274954","Consent","1","consent_4option1","Agree","1","0","0","0","0","0","V/S","Volatile","","Circle","0","","","","0","0","0","0","0","0"
"6.6.3","win","2025-01-08","10:25:33","66ba0c9bf26db3f44b274954","Consent","1","consent_5option1","Agree","1","0","0","0","0","0","V/S","Volatile","","Circle","0","","","","0","0","0","0","0","0"
"6.6.3","win","2025-01-08","10:25:33","66ba0c9bf26db3f44b274954","Consent","1","consent_6option1","Agree","1","0","0","0","0","0","V/S","Volatile","","Circle","0","","","","0","0","0","0","0","0"
"6.6.3","win","2025-01-08","10:25:33","66ba0c9bf26db3f44b274954","Consent","1","consent_7option1","Agree","1","0","0","0","0","0","V/S","Volatile","","Circle","0","","","","0","0","0","0","0","0"
"6.6.3","win","2025-01-08","10:25:33","66ba0c9bf26db3f44b274954","Consent","1","consent_8option1","Agree","1","0","0","0","0","0","V/S","Volatile","","Circle","0","","","","0","0","0","0","0","0"
"6.6.3","win","2025-01-08","10:25:33","66ba0c9bf26db3f44b274954","Consent","1","consent_9option1","Agree","1","0","0","0","0","0","V/S","Volatile","","Circle","0","","","","0","0","0","0","0","0"
"6.6.3","win","2025-01-08","10:25:33","66ba0c9bf26db3f44b274954","Consent","1","consent_10option1","Agree","1","0","0","0","0","0","V/S","Volatile","","Circle","0","","","","0","0","0","0","0","0"
"6.6.3","win","2025-01-08","10:25:33","66ba0c9bf26db3f44b274954","Consent","1","consent_11option1","Agree","1","0","0","0","0","0","V/S","Volatile","","Circle","0","","","","0","0","0","0","0","0"
"6.6.3","win","2025-01-08","10:25:33","66ba0c9bf26db3f44b274954","Consent","1","consent_12option1","Agree","1","0","0","0","0","0","V/S","Volatile","","Circle","0","","","","0","0","0","0","0","0"
"6.6.3","win","2025-01-08","10:25:33","66ba0c9bf26db3f44b274954","ineligible","3","ineligibleT","Ctrl+'Q'","1","1","1","0","0","0","V/S","Volatile","","Circle","0","","","","0","0","0","0","0","0"
"6.6.3","win","2025-01-08","19:27:40","66cde7c1776904d08cb84fda","Consent","1","Consenttitle","","1","0","0","0","0","0","V/S","Volatile","","Circle","0","","","","0","0","0","0","0","0"
"6.6.3","win","2025-01-08","19:27:40","66cde7c1776904d08cb84fda","Consent","1","consent_1option1","Agree","1","0","0","0","0","0","V/S","Volatile","","Circle","0","","","","0","0","0","0","0","0"
"6.6.3","win","2025-01-08","19:27:40","66cde7c1776904d08cb84fda","Consent","1","consent_2option1","Agree","1","0","0","0","0","0","V/S","Volatile","","Circle","0","","","","0","0","0","0","0","0"
"6.6.3","win","2025-01-08","19:27:40","66cde7c1776904d08cb84fda","Consent","1","consent_3option1","Agree","1","0","0","0","0","0","V/S","Volatile","","Circle","0","","","","0","0","0","0","0","0"
"6.6.3","win","2025-01-08","19:27:40","66cde7c1776904d08cb84fda","Consent","1","consent_4option1","Agree","1","0","0","0","0","0","V/S","Volatile","","Circle","0","","","","0","0","0","0","0","0"
"6.6.3","win","2025-01-08","19:27:40","66cde7c1776904d08cb84fda","Consent","1","consent_5option1","Agree","1","0","0","0","0","0","V/S","Volatile","","Circle","0","","","","0","0","0","0","0","0"
"6.6.3","win","2025-01-08","19:27:40","66cde7c1776904d08cb84fda","Consent","1","consent_6option1","Agree","1","0","0","0","0","0","V/S","Volatile","","Circle","0","","","","0","0","0","0","0","0"
"6.6.3","win","2025-01-08","19:27:40","66cde7c1776904d08cb84fda","Consent","1","consent_7option1","Agree","1","0","0","0","0","0","V/S","Volatile","","Circle","0","","","","0","0","0","0","0","0"
"6.6.3","win","2025-01-08","19:27:40","66cde7c1776904d08cb84fda","Consent","1","consent_8option1","Agree","1","0","0","0","0","0","V/S","Volatile","","Circle","0","","","","0","0","0","0","0","0"
"6.6.3","win","2025-01-08","19:27:40","66cde7c1776904d08cb84fda","Consent","1","consent_9option1","Agree","1","0","0","0","0","0","V/S","Volatile","","Circle","0","","","","0","0","0","0","0","0"
"6.6.3","win","2025-01-08","19:27:40","66cde7c1776904d08cb84fda","Consent","1","consent_10option1","Agree","1","0","0","0","0","0","V/S","Volatile","","Circle","0","","","","0","0","0","0","0","0"
"6.6.3","win","2025-01-08","19:27:40","66cde7c1776904d08cb84fda","Consent","1","consent_11option1","Agree","1","0","0","0","0","0","V/S","Volatile","","Circle","0","","","","0","0","0","0","0","0"
"6.6.3","win","2025-01-08","19:27:40","66cde7c1776904d08cb84fda","Consent","1","consent_12option1","Agree","1","0","0","0","0","0","V/S","Volatile","","Circle","0","","","","0","0","0","0","0","0"
"6.6.3","win","2025-01-08","19:27:40","66cde7c1776904d08cb84fda","ineligible","3","ineligibleT","Ctrl+'Q'","1","1","1","0","0","0","V/S","Volatile","","Circle","0","","","","0","0","0","0","0","0"
"6.6.3","and","2025-01-08","10:34:22","656c8bf46599eb729c0ade1c","Consent","1","Consenttitle","","1","0","0","0","0","0","V/S","Volatile","","Triangle","0","","","","0","0","0","0","0","0"
"6.6.3","and","2025-01-08","10:34:22","656c8bf46599eb729c0ade1c","Consent","1","forced_exit","finish","0","0","0","0","0","0","V/S","Volatile","","Triangle","0","","","","0","0","0","0","0","0"
"6.6.3","win","2025-01-08","08:33:20","605269ed69c7aac84a09dc72","Consent","1","Consenttitle","","1","0","0","0","0","0","V/S","Volatile","","Triangle","0","","","","0","0","0","0","0","0"
"6.6.3","win","2025-01-08","08:33:20","605269ed69c7aac84a09dc72","Consent","1","consent_1option1","Agree","1","0","0","0","0","0","V/S","Volatile","","Triangle","0","","","","0","0","0","0","0","0"
"6.6.3","win","2025-01-08","08:33:20","605269ed69c7aac84a09dc72","Consent","1","consent_2option1","Agree","1","0","0","0","0","0","V/S","Volatile","","Triangle","0","","","","0","0","0","0","0","0"
"6.6.3","win","2025-01-08","08:33:20","605269ed69c7aac84a09dc72","Consent","1","consent_3option1","Agree","1","0","0","0","0","0","V/S","Volatile","","Triangle","0","","","","0","0","0","0","0","0"
"6.6.3","win","2025-01-08","08:33:20","605269ed69c7aac84a09dc72","Consent","1","consent_4option1","Agree","1","0","0","0","0","0","V/S","Volatile","","Triangle","0","","","","0","0","0","0","0","0"
"6.6.3","win","2025-01-08","08:33:20","605269ed69c7aac84a09dc72","Consent","1","consent_5option1","Agree","1","0","0","0","0","0","V/S","Volatile","","Triangle","0","","","","0","0","0","0","0","0"
"6.6.3","win","2025-01-08","08:33:20","605269ed69c7aac84a09dc72","Consent","1","consent_6option1","Agree","1","0","0","0","0","0","V/S","Volatile","","Triangle","0","","","","0","0","0","0","0","0"
"6.6.3","win","2025-01-08","08:33:20","605269ed69c7aac84a09dc72","Consent","1","consent_7option1","Agree","1","0","0","0","0","0","V/S","Volatile","","Triangle","0","","","","0","0","0","0","0","0"
"6.6.3","win","2025-01-08","08:33:20","605269ed69c7aac84a09dc72","Consent","1","consent_8option1","Agree","1","0","0","0","0","0","V/S","Volatile","","Triangle","0","","","","0","0","0","0","0","0"
"6.6.3","win","2025-01-08","08:33:20","605269ed69c7aac84a09dc72","Consent","1","consent_9option1","Agree","1","0","0","0","0","0","V/S","Volatile","","Triangle","0","","","","0","0","0","0","0","0"
"6.6.3","win","2025-01-08","08:33:20","605269ed69c7aac84a09dc72","Consent","1","consent_10option1","Agree","1","0","0","0","0","0","V/S","Volatile","","Triangle","0","","","","0","0","0","0","0","0"
"6.6.3","win","2025-01-08","08:33:20","605269ed69c7aac84a09dc72","Consent","1","consent_11option1","Agree","1","0","0","0","0","0","V/S","Volatile","","Triangle","0","","","","0","0","0","0","0","0"
"6.6.3","win","2025-01-08","08:33:20","605269ed69c7aac84a09dc72","Consent","1","consent_12option1","Agree","1","0","0","0","0","0","V/S","Volatile","","Triangle","0","","","","0","0","0","0","0","0"
"6.6.3","win","2025-01-08","08:33:20","605269ed69c7aac84a09dc72","ineligible","3","ineligibleT","Ctrl+'Q'","1","1","1","0","0","0","V/S","Volatile","","Triangle","0","","","","0","0","0","0","0","0"
"6.6.3","win","2025-01-08","08:35:17","605269ed69c7aac84a09dc72","Consent","1","Consenttitle","","1","0","0","0","0","0","V/S","Volatile","","Triangle","0","","","","0","0","0","0","0","0"
"6.6.3","win","2025-01-08","08:35:17","605269ed69c7aac84a09dc72","Consent","1","consent_1option1","Agree","1","0","0","0","0","0","V/S","Volatile","","Triangle","0","","","","0","0","0","0","0","0"
"6.6.3","win","2025-01-08","08:35:17","605269ed69c7aac84a09dc72","Consent","1","consent_2option1","Agree","1","0","0","0","0","0","V/S","Volatile","","Triangle","0","","","","0","0","0","0","0","0"
"6.6.3","win","2025-01-08","08:35:17","605269ed69c7aac84a09dc72","Consent","1","consent_3option1","Agree","1","0","0","0","0","0","V/S","Volatile","","Triangle","0","","","","0","0","0","0","0","0"
"6.6.3","win","2025-01-08","08:35:17","605269ed69c7aac84a09dc72","Consent","1","consent_4option1","Agree","1","0","0","0","0","0","V/S","Volatile","","Triangle","0","","","","0","0","0","0","0","0"
"6.6.3","win","2025-01-08","08:35:17","605269ed69c7aac84a09dc72","Consent","1","consent_5option1","Agree","1","0","0","0","0","0","V/S","Volatile","","Triangle","0","","","","0","0","0","0","0","0"
"6.6.3","win","2025-01-08","08:35:17","605269ed69c7aac84a09dc72","Consent","1","consent_6option1","Agree","1","0","0","0","0","0","V/S","Volatile","","Triangle","0","","","","0","0","0","0","0","0"
"6.6.3","win","2025-01-08","08:35:17","605269ed69c7aac84a09dc72","Consent","1","consent_7option1","Agree","1","0","0","0","0","0","V/S","Volatile","","Triangle","0","","","","0","0","0","0","0","0"
"6.6.3","win","2025-01-08","08:35:17","605269ed69c7aac84a09dc72","Consent","1","consent_8option1","Agree","1","0","0","0","0","0","V/S","Volatile","","Triangle","0","","","","0","0","0","0","0","0"
"6.6.3","win","2025-01-08","08:35:17","605269ed69c7aac84a09dc72","Consent","1","consent_9option1","Agree","1","0","0","0","0","0","V/S","Volatile","","Triangle","0","","","","0","0","0","0","0","0"
"6.6.3","win","2025-01-08","08:35:17","605269ed69c7aac84a09dc72","Consent","1","consent_10option1","Agree","1","0","0","0","0","0","V/S","Volatile","","Triangle","0","","","","0","0","0","0","0","0"
"6.6.3","win","2025-01-08","08:35:17","605269ed69c7aac84a09dc72","Consent","1","consent_11option1","Agree","1","0","0","0","0","0","V/S","Volatile","","Triangle","0","","","","0","0","0","0","0","0"
"6.6.3","win","2025-01-08","08:35:17","605269ed69c7aac84a09dc72","Consent","1","consent_12option1","Agree","1","0","0","0","0","0","V/S","Volatile","","Triangle","0","","","","0","0","0","0","0","0"
"6.6.3","win","2025-01-08","08:35:17","605269ed69c7aac84a09dc72","ineligible","3","ineligibleT","Ctrl+'Q'","1","1","1","0","0","0","V/S","Volatile","","Triangle","0","","","","0","0","0","0","0","0"
"6.6.3","and","2025-01-08","10:36:06","656c8bf46599eb729c0ade1c","Consent","1","Consenttitle","","1","0","0","0","0","0","V/S","Volatile","","Circle","0","","","","0","0","0","0","0","0"
"6.6.3","and","2025-01-08","10:36:06","656c8bf46599eb729c0ade1c","Consent","1","forced_exit","finish","0","0","0","0","0","0","V/S","Volatile","","Circle","0","","","","0","0","0","0","0","0"
"6.6.3","win","2025-01-08","08:36:17","605269ed69c7aac84a09dc72","Consent","1","Consenttitle","","1","0","0","0","0","0","V/S","Volatile","","Triangle","0","","","","0","0","0","0","0","0"
"6.6.3","win","2025-01-08","08:36:17","605269ed69c7aac84a09dc72","Consent","1","consent_1option1","Agree","1","0","0","0","0","0","V/S","Volatile","","Triangle","0","","","","0","0","0","0","0","0"
"6.6.3","win","2025-01-08","08:36:17","605269ed69c7aac84a09dc72","Consent","1","consent_2option1","Agree","1","0","0","0","0","0","V/S","Volatile","","Triangle","0","","","","0","0","0","0","0","0"
"6.6.3","win","2025-01-08","08:36:17","605269ed69c7aac84a09dc72","Consent","1","consent_3option1","Agree","1","0","0","0","0","0","V/S","Volatile","","Triangle","0","","","","0","0","0","0","0","0"
"6.6.3","win","2025-01-08","08:36:17","605269ed69c7aac84a09dc72","Consent","1","consent_4option1","Agree","1","0","0","0","0","0","V/S","Volatile","","Triangle","0","","","","0","0","0","0","0","0"
"6.6.3","win","2025-01-08","08:36:17","605269ed69c7aac84a09dc72","Consent","1","consent_5option1","Agree","1","0","0","0","0","0","V/S","Volatile","","Triangle","0","","","","0","0","0","0","0","0"
"6.6.3","win","2025-01-08","08:36:17","605269ed69c7aac84a09dc72","Consent","1","consent_6option1","Agree","1","0","0","0","0","0","V/S","Volatile","","Triangle","0","","","","0","0","0","0","0","0"
"6.6.3","win","2025-01-08","08:36:17","605269ed69c7aac84a09dc72","Consent","1","consent_7option1","Agree","1","0","0","0","0","0","V/S","Volatile","","Triangle","0","","","","0","0","0","0","0","0"
"6.6.3","win","2025-01-08","08:36:17","605269ed69c7aac84a09dc72","Consent","1","consent_8option1","Agree","1","0","0","0","0","0","V/S","Volatile","","Triangle","0","","","","0","0","0","0","0","0"
"6.6.3","win","2025-01-08","08:36:17","605269ed69c7aac84a09dc72","Consent","1","consent_9option1","Agree","1","0","0","0","0","0","V/S","Volatile","","Triangle","0","","","","0","0","0","0","0","0"
"6.6.3","win","2025-01-08","08:36:17","605269ed69c7aac84a09dc72","Consent","1","consent_10option1","Agree","1","0","0","0","0","0","V/S","Volatile","","Triangle","0","","","","0","0","0","0","0","0"
"6.6.3","win","2025-01-08","08:36:17","605269ed69c7aac84a09dc72","Consent","1","consent_11option1","Agree","1","0","0","0","0","0","V/S","Volatile","","Triangle","0","","","","0","0","0","0","0","0"
"6.6.3","win","2025-01-08","08:36:17","605269ed69c7aac84a09dc72","Consent","1","consent_12option1","Agree","1","0","0","0","0","0","V/S","Volatile","","Triangle","0","","","","0","0","0","0","0","0"
"6.6.3","win","2025-01-08","08:36:17","605269ed69c7aac84a09dc72","ineligible","3","ineligibleT","Ctrl+'Q'","1","1","1","0","0","0","V/S","Volatile","","Triangle","0","","","","0","0","0","0","0","0"
"6.6.3","and","2025-01-08","10:39:06","65c6f3d412b2fc050e5380ca","Consent","1","Consenttitle","","1","0","0","0","0","0","V/S","Volatile","","Circle","0","","","","0","0","0","0","0","0"
"6.6.3","and","2025-01-08","10:39:06","65c6f3d412b2fc050e5380ca","Consent","1","forced_exit","finish","0","0","0","0","0","0","V/S","Volatile","","Circle","0","","","","0","0","0","0","0","0"
"6.6.3","win","2025-01-08","00:18:26","667ad3a189817cf129ae61e6","Consent","1","Consenttitle","","1","0","0","0","0","0","V/S","Volatile","","Circle","0","","","","0","0","0","0","0","0"
"6.6.3","win","2025-01-08","00:18:26","667ad3a189817cf129ae61e6","Consent","1","consent_1option1","Agree","1","0","0","0","0","0","V/S","Volatile","","Circle","0","","","","0","0","0","0","0","0"
"6.6.3","win","2025-01-08","00:18:26","667ad3a189817cf129ae61e6","Consent","1","consent_2option1","Agree","1","0","0","0","0","0","V/S","Volatile","","Circle","0","","","","0","0","0","0","0","0"
"6.6.3","win","2025-01-08","00:18:26","667ad3a189817cf129ae61e6","Consent","1","consent_3option1","Agree","1","0","0","0","0","0","V/S","Volatile","","Circle","0","","","","0","0","0","0","0","0"
"6.6.3","win","2025-01-08","00:18:26","667ad3a189817cf129ae61e6","Consent","1","consent_4option1","Agree","1","0","0","0","0","0","V/S","Volatile","","Circle","0","","","","0","0","0","0","0","0"
"6.6.3","win","2025-01-08","00:18:26","667ad3a189817cf129ae61e6","Consent","1","consent_5option1","Agree","1","0","0","0","0","0","V/S","Volatile","","Circle","0","","","","0","0","0","0","0","0"
"6.6.3","win","2025-01-08","00:18:26","667ad3a189817cf129ae61e6","Consent","1","consent_6option1","Agree","1","0","0","0","0","0","V/S","Volatile","","Circle","0","","","","0","0","0","0","0","0"
"6.6.3","win","2025-01-08","00:18:26","667ad3a189817cf129ae61e6","Consent","1","consent_7option1","Agree","1","0","0","0","0","0","V/S","Volatile","","Circle","0","","","","0","0","0","0","0","0"
"6.6.3","win","2025-01-08","00:18:26","667ad3a189817cf129ae61e6","Consent","1","consent_8option1","Agree","1","0","0","0","0","0","V/S","Volatile","","Circle","0","","","","0","0","0","0","0","0"
"6.6.3","win","2025-01-08","00:18:26","667ad3a189817cf129ae61e6","Consent","1","consent_9option1","Agree","1","0","0","0","0","0","V/S","Volatile","","Circle","0","","","","0","0","0","0","0","0"
"6.6.3","win","2025-01-08","00:18:26","667ad3a189817cf129ae61e6","Consent","1","consent_10option1","Agree","1","0","0","0","0","0","V/S","Volatile","","Circle","0","","","","0","0","0","0","0","0"
"6.6.3","win","2025-01-08","00:18:26","667ad3a189817cf129ae61e6","Consent","1","consent_11option1","Agree","1","0","0","0","0","0","V/S","Volatile","","Circle","0","","","","0","0","0","0","0","0"
"6.6.3","win","2025-01-08","00:18:26","667ad3a189817cf129ae61e6","Consent","1","consent_12option1","Agree","1","0","0","0","0","0","V/S","Volatile","","Circle","0","","","","0","0","0","0","0","0"
"6.6.3","win","2025-01-08","00:18:26","667ad3a189817cf129ae61e6","80_20_cir","5","punish_feedback","0","0","1","1","1","1","1","V/S","Volatile","Incongruent","Circle","Circle","Right","Right","Correct","-1","-1","1","532","1517","0"
"6.6.3","win","2025-01-08","00:18:26","667ad3a189817cf129ae61e6","80_20_cir","5","punish_feedback","0","0","1","1","2","2","2","V/S","Volatile","Congruent","Circle","Circle","Right","Left","Incorrect","-1","-2","2","363","1517","0"
"6.6.3","win","2025-01-08","00:18:26","667ad3a189817cf129ae61e6","80_20_cir","5","reward_feedback","0","0","1","1","3","3","3","V/S","Volatile","Congruent","Circle","Circle","Left","Left","Correct","1","-1","3","444","1610","0"
"6.6.3","win","2025-01-08","00:18:26","667ad3a189817cf129ae61e6","80_20_cir","5","reward_feedback","0","0","1","1","4","4","4","V/S","Volatile","Congruent","Circle","Circle","Right","Right","Correct","1","0","4","447","1887","0"
"6.6.3","win","2025-01-08","00:18:26","667ad3a189817cf129ae61e6","80_20_cir","5","reward_feedback","0","0","1","1","5","5","5","V/S","Volatile","Congruent","Circle","Circle","Left","Left","Correct","1","1","5","462","1068","0"
"6.6.3","win","2025-01-08","00:18:26","667ad3a189817cf129ae61e6","80_20_cir","6","reward_feedback","0","0","1","1","6","6","6","V/S","Volatile","Congruent","Circle","Circle","Left","Left","Correct","1","2","6","377","1334","0"
"6.6.3","win","2025-01-08","00:18:26","667ad3a189817cf129ae61e6","80_20_cir","6","reward_feedback","0","0","1","1","7","7","7","V/S","Volatile","Congruent","Circle","Circle","Left","Left","Correct","1","3","7","391","1456","0"
"6.6.3","win","2025-01-08","00:18:26","667ad3a189817cf129ae61e6","80_20_cir","6","reward_feedback","0","0","1","1","8","8","8","V/S","Volatile","Congruent","Circle","Circle","Right","Right","Correct","1","4","8","418","1364","0"
"6.6.3","win","2025-01-08","00:18:26","667ad3a189817cf129ae61e6","80_20_cir","6","reward_feedback","0","0","1","1","9","9","9","V/S","Volatile","Congruent","Circle","Circle","Left","Left","Correct","1","5","9","405","1228","0"
"6.6.3","win","2025-01-08","00:18:26","667ad3a189817cf129ae61e6","80_20_cir","6","punish_feedback","0","0","1","1","10","10","10","V/S","Volatile","Incongruent","Circle","Circle","Left","Left","Correct","-1","4","10","431","1937","0"
"6.6.3","win","2025-01-08","00:18:26","667ad3a189817cf129ae61e6","80_20_cir","7","reward_feedback","0","0","1","1","11","11","11","V/S","Volatile","Congruent","Circle","Circle","Left","Left","Correct","1","5","11","541","1405","0"
"6.6.3","win","2025-01-08","00:18:26","667ad3a189817cf129ae61e6","80_20_cir","7","punish_feedback","0","0","1","1","12","12","12","V/S","Volatile","Congruent","Circle","Circle","Right","Left","Incorrect","-1","4","12","570","1694","0"
"6.6.3","win","2025-01-08","00:18:26","667ad3a189817cf129ae61e6","80_20_cir","7","punish_feedback","0","0","1","1","13","13","13","V/S","Volatile","Incongruent","Circle","Circle","Right","Right","Correct","-1","3","13","764","1214","0"
"6.6.3","win","2025-01-08","00:18:26","667ad3a189817cf129ae61e6","80_20_cir","7","reward_feedback","0","0","1","1","14","14","14","V/S","Volatile","Congruent","Circle","Circle","Left","Left","Correct","1","4","14","662","1377","0"
"6.6.3","win","2025-01-08","00:18:26","667ad3a189817cf129ae61e6","80_20_cir","7","reward_feedback","0","0","1","1","15","15","15","V/S","Volatile","Congruent","Circle","Circle","Left","Left","Correct","1","5","15","452","1814","0"
"6.6.3","win","2025-01-08","00:18:26","667ad3a189817cf129ae61e6","80_20_cir","8","punish_feedback","0","0","1","1","16","16","16","V/S","Volatile","Incongruent","Circle","Circle","Right","Right","Correct","-1","4","16","434","1468","0"
"6.6.3","win","2025-01-08","00:18:26","667ad3a189817cf129ae61e6","80_20_cir","8","reward_feedback","0","0","1","1","17","17","17","V/S","Volatile","Congruent","Circle","Circle","Left","Left","Correct","1","5","17","409","1972","0"
"6.6.3","win","2025-01-08","00:18:26","667ad3a189817cf129ae61e6","80_20_cir","8","reward_feedback","0","0","1","1","18","18","18","V/S","Volatile","Congruent","Circle","Circle","Left","Left","Correct","1","6","18","414","1471","0"
"6.6.3","win","2025-01-08","00:18:26","667ad3a189817cf129ae61e6","80_20_cir","8","reward_feedback","0","0","1","1","19","19","19","V/S","Volatile","Congruent","Circle","Circle","Left","Left","Correct","1","7","19","362","1598","0"
"6.6.3","win","2025-01-08","00:18:26","667ad3a189817cf129ae61e6","80_20_cir","8","punish_feedback","0","0","1","1","20","20","20","V/S","Volatile","Congruent","Circle","Circle","Right","Left","Incorrect","-1","6","20","569","1193","0"
"6.6.3","win","2025-01-08","00:18:26","667ad3a189817cf129ae61e6","80_20_tri","9","reward_feedback","0","0","1","1","21","21","21","V/S","Volatile","Congruent","Circle","Triangle","Left","Left","Correct","1","7","1","736","1161","0"
"6.6.3","win","2025-01-08","00:18:26","667ad3a189817cf129ae61e6","80_20_tri","9","punish_feedback","0","0","1","1","22","22","22","V/S","Volatile","Incongruent","Circle","Triangle","Left","Left","Correct","-1","6","2","418","1258","0"
"6.6.3","win","2025-01-08","00:18:26","667ad3a189817cf129ae61e6","80_20_tri","9","reward_feedback","0","0","1","1","23","23","23","V/S","Volatile","Congruent","Circle","Triangle","Left","Left","Correct","1","7","3","436","1812","0"
"6.6.3","win","2025-01-08","00:18:26","667ad3a189817cf129ae61e6","80_20_tri","9","reward_feedback","0","0","1","1","24","24","24","V/S","Volatile","Congruent","Circle","Triangle","Right","Right","Correct","1","8","4","603","1949","0"
"6.6.3","win","2025-01-08","00:18:26","667ad3a189817cf129ae61e6","80_20_tri","9","punish_feedback","0","0","1","1","25","25","25","V/S","Volatile","Congruent","Circle","Triangle","Right","Left","Incorrect","-1","7","5","516","1565","0"
"6.6.3","win","2025-01-08","00:18:26","667ad3a189817cf129ae61e6","80_20_tri","10","reward_feedback","0","0","1","1","26","26","26","V/S","Volatile","Congruent","Circle","Triangle","Right","Right","Correct","1","8","6","861","1076","0"
"6.6.3","win","2025-01-08","00:18:26","667ad3a189817cf129ae61e6","80_20_tri","10","reward_feedback","0","0","1","1","27","27","27","V/S","Volatile","Congruent","Circle","Triangle","Left","Left","Correct","1","9","7","456","1564","0"
"6.6.3","win","2025-01-08","00:18:26","667ad3a189817cf129ae61e6","80_20_tri","10","reward_feedback","0","0","1","1","28","28","28","V/S","Volatile","Congruent","Circle","Triangle","Right","Right","Correct","1","10","8","470","1727","0"
"6.6.3","win","2025-01-08","00:18:26","667ad3a189817cf129ae61e6","80_20_tri","10","punish_feedback","0","0","1","1","29","29","29","V/S","Volatile","Incongruent","Circle","Triangle","Right","Right","Correct","-1","9","9","549","1100","0"
"6.6.3","win","2025-01-08","00:18:26","667ad3a189817cf129ae61e6","80_20_tri","10","reward_feedback","0","0","1","1","30","30","30","V/S","Volatile","Congruent","Circle","Triangle","Right","Right","Correct","1","10","10","600","1587","0"
"6.6.3","win","2025-01-08","00:18:26","667ad3a189817cf129ae61e6","80_20_tri","11","punish_feedback","0","0","1","1","31","31","31","V/S","Volatile","Incongruent","Circle","Triangle","Left","Left","Correct","-1","9","11","542","1123","0"
"6.6.3","win","2025-01-08","00:18:26","667ad3a189817cf129ae61e6","80_20_tri","11","punish_feedback","0","0","1","1","32","32","32","V/S","Volatile","Congruent","Circle","Triangle","Left","Right","Incorrect","-1","8","12","369","1555","0"
"6.6.3","win","2025-01-08","00:18:26","667ad3a189817cf129ae61e6","80_20_tri","11","reward_feedback","0","0","1","1","33","33","33","V/S","Volatile","Congruent","Circle","Triangle","Right","Right","Correct","1","9","13","336","1378","0"
"6.6.3","win","2025-01-08","00:18:26","667ad3a189817cf129ae61e6","80_20_tri","11","reward_feedback","0","0","1","1","34","34","34","V/S","Volatile","Congruent","Circle","Triangle","Left","Left","Correct","1","10","14","392","1565","0"
"6.6.3","win","2025-01-08","00:18:26","667ad3a189817cf129ae61e6","80_20_tri","11","reward_feedback","0","0","1","1","35","35","35","V/S","Volatile","Congruent","Circle","Triangle","Left","Left","Correct","1","11","15","497","1275","0"
"6.6.3","win","2025-01-08","00:18:26","667ad3a189817cf129ae61e6","80_20_tri","12","reward_feedback","0","0","1","1","36","36","36","V/S","Volatile","Congruent","Circle","Triangle","Right","Right","Correct","1","12","16","606","1001","0"
"6.6.3","win","2025-01-08","00:18:26","667ad3a189817cf129ae61e6","80_20_tri","12","punish_feedback","0","0","1","1","37","37","37","V/S","Volatile","Congruent","Circle","Triangle","Left","Right","Incorrect","-1","11","17","534","1880","0"
"6.6.3","win","2025-01-08","00:18:26","667ad3a189817cf129ae61e6","80_20_tri","12","reward_feedback","0","0","1","1","38","38","38","V/S","Volatile","Congruent","Circle","Triangle","Right","Right","Correct","1","12","18","532","1191","0"
"6.6.3","win","2025-01-08","00:18:26","667ad3a189817cf129ae61e6","80_20_tri","12","reward_feedback","0","0","1","1","39","39","39","V/S","Volatile","Incongruent","Circle","Triangle","Right","Left","Incorrect","1","13","19","649","1204","0"
"6.6.3","win","2025-01-08","00:18:26","667ad3a189817cf129ae61e6","80_20_tri","12","punish_feedback","0","0","1","1","40","40","40","V/S","Volatile","Congruent","Circle","Triangle","Right","Left","Incorrect","-1","12","20","353","1280","0"
"6.6.3","win","2025-01-08","00:18:26","667ad3a189817cf129ae61e6","80_20_cir","13","punish_feedback","0","0","1","1","41","41","41","V/S","Volatile","Congruent","Circle","Circle","Left","Right","Incorrect","-1","11","1","440","1869","0"
"6.6.3","win","2025-01-08","00:18:26","667ad3a189817cf129ae61e6","80_20_cir","13","reward_feedback","0","0","1","1","42","42","42","V/S","Volatile","Congruent","Circle","Circle","Left","Left","Correct","1","12","2","1091","1208","0"
"6.6.3","win","2025-01-08","00:18:26","667ad3a189817cf129ae61e6","80_20_cir","13","reward_feedback","0","0","1","1","43","43","43","V/S","Volatile","Congruent","Circle","Circle","Left","Left","Correct","1","13","3","403","1706","0"
"6.6.3","win","2025-01-08","00:18:26","667ad3a189817cf129ae61e6","80_20_cir","13","reward_feedback","0","0","1","1","44","44","44","V/S","Volatile","Incongruent","Circle","Circle","Left","Right","Incorrect","1","14","4","337","1021","0"
"6.6.3","win","2025-01-08","00:18:26","667ad3a189817cf129ae61e6","80_20_cir","13","reward_feedback","0","0","1","1","45","45","45","V/S","Volatile","Congruent","Circle","Circle","Right","Right","Correct","1","15","5","285","1183","0"
"6.6.3","win","2025-01-08","00:18:26","667ad3a189817cf129ae61e6","80_20_cir","14","reward_feedback","0","0","1","1","46","46","46","V/S","Volatile","Incongruent","Circle","Circle","Right","Left","Incorrect","1","16","6","327","1335","0"
"6.6.3","win","2025-01-08","00:18:26","667ad3a189817cf129ae61e6","80_20_cir","14","reward_feedback","0","0","1","1","47","47","47","V/S","Volatile","Congruent","Circle","Circle","Left","Left","Correct","1","17","7","349","1576","0"
"6.6.3","win","2025-01-08","00:18:26","667ad3a189817cf129ae61e6","80_20_cir","14","reward_feedback","0","0","1","1","48","48","48","V/S","Volatile","Congruent","Circle","Circle","Right","Right","Correct","1","18","8","312","1626","0"
"6.6.3","win","2025-01-08","00:18:26","667ad3a189817cf129ae61e6","80_20_cir","14","reward_feedback","0","0","1","1","49","49","49","V/S","Volatile","Congruent","Circle","Circle","Left","Left","Correct","1","19","9","301","1824","0"
"6.6.3","win","2025-01-08","00:18:26","667ad3a189817cf129ae61e6","80_20_cir","14","punish_feedback","0","0","1","1","50","50","50","V/S","Volatile","Congruent","Circle","Circle","Right","Left","Incorrect","-1","18","10","405","1723","0"
"6.6.3","win","2025-01-08","00:18:26","667ad3a189817cf129ae61e6","80_20_cir","15","punish_feedback","0","0","1","1","51","51","51","V/S","Volatile","Congruent","Circle","Circle","Left","Right","Incorrect","-1","17","11","694","1198","0"
"6.6.3","win","2025-01-08","00:18:26","667ad3a189817cf129ae61e6","80_20_cir","15","punish_feedback","0","0","1","1","52","52","52","V/S","Volatile","Congruent","Circle","Circle","Left","Right","Incorrect","-1","16","12","284","1528","0"
"6.6.3","win","2025-01-08","00:18:26","667ad3a189817cf129ae61e6","80_20_cir","15","punish_feedback","0","0","1","1","53","53","53","V/S","Volatile","Congruent","Circle","Circle","Left","Right","Incorrect","-1","15","13","294","1369","0"
"6.6.3","win","2025-01-08","00:18:26","667ad3a189817cf129ae61e6","80_20_cir","15","punish_feedback","0","0","1","1","54","54","54","V/S","Volatile","Incongruent","Circle","Circle","Left","Left","Correct","-1","14","14","291","1411","0"
"6.6.3","win","2025-01-08","00:18:26","667ad3a189817cf129ae61e6","80_20_cir","15","punish_feedback","0","0","1","1","55","55","55","V/S","Volatile","Congruent","Circle","Circle","Right","Left","Incorrect","-1","13","15","274","1434","0"
"6.6.3","win","2025-01-08","00:18:26","667ad3a189817cf129ae61e6","80_20_cir","16","punish_feedback","0","0","1","1","56","56","56","V/S","Volatile","Incongruent","Circle","Circle","Left","Left","Correct","-1","12","16","286","1813","0"
"6.6.3","win","2025-01-08","00:18:26","667ad3a189817cf129ae61e6","80_20_cir","16","punish_feedback","0","0","1","1","57","57","57","V/S","Volatile","Congruent","Circle","Circle","Left","Right","Incorrect","-1","11","17","565","1223","0"
"6.6.3","win","2025-01-08","00:18:26","667ad3a189817cf129ae61e6","80_20_cir","16","punish_feedback","0","0","1","1","58","58","58","V/S","Volatile","Congruent","Circle","Circle","Right","Left","Incorrect","-1","10","18","398","1373","0"
"6.6.3","win","2025-01-08","00:18:26","667ad3a189817cf129ae61e6","80_20_cir","16","reward_feedback","0","0","1","1","59","59","59","V/S","Volatile","Congruent","Circle","Circle","Right","Right","Correct","1","11","19","407","1969","0"
"6.6.3","win","2025-01-08","00:18:26","667ad3a189817cf129ae61e6","80_20_cir","16","reward_feedback","0","0","1","1","60","60","60","V/S","Volatile","Congruent","Circle","Circle","Left","Left","Correct","1","12","20","360","1924","0"
"6.6.3","win","2025-01-08","00:18:26","667ad3a189817cf129ae61e6","80_20_tri","17","punish_feedback","0","0","1","1","61","61","61","V/S","Volatile","Incongruent","Circle","Triangle","Left","Left","Correct","-1","11","1","259","1998","0"
"6.6.3","win","2025-01-08","00:18:26","667ad3a189817cf129ae61e6","80_20_tri","17","punish_feedback","0","0","1","1","62","62","62","V/S","Volatile","Congruent","Circle","Triangle","Left","Right","Incorrect","-1","10","2","450","1042","0"
"6.6.3","win","2025-01-08","00:18:26","667ad3a189817cf129ae61e6","80_20_tri","17","punish_feedback","0","0","1","1","63","63","63","V/S","Volatile","Congruent","Circle","Triangle","Right","Left","Incorrect","-1","9","3","452","1697","0"
"6.6.3","win","2025-01-08","00:18:26","667ad3a189817cf129ae61e6","80_20_tri","17","reward_feedback","0","0","1","1","64","64","64","V/S","Volatile","Congruent","Circle","Triangle","Left","Left","Correct","1","10","4","432","1753","0"
"6.6.3","win","2025-01-08","00:18:26","667ad3a189817cf129ae61e6","80_20_tri","17","reward_feedback","0","0","1","1","65","65","65","V/S","Volatile","Congruent","Circle","Triangle","Left","Left","Correct","1","11","5","462","1794","0"
"6.6.3","win","2025-01-08","00:18:26","667ad3a189817cf129ae61e6","80_20_tri","18","punish_feedback","0","0","1","1","66","66","66","V/S","Volatile","Congruent","Circle","Triangle","Right","Left","Incorrect","-1","10","6","479","1628","0"
"6.6.3","win","2025-01-08","00:18:26","667ad3a189817cf129ae61e6","80_20_tri","18","reward_feedback","0","0","1","1","67","67","67","V/S","Volatile","Congruent","Circle","Triangle","Right","Right","Correct","1","11","7","427","1698","0"
"6.6.3","win","2025-01-08","00:18:26","667ad3a189817cf129ae61e6","80_20_tri","18","punish_feedback","0","0","1","1","68","68","68","V/S","Volatile","Congruent","Circle","Triangle","Left","Right","Incorrect","-1","10","8","501","1152","0"
"6.6.3","win","2025-01-08","00:18:26","667ad3a189817cf129ae61e6","80_20_tri","18","punish_feedback","0","0","1","1","69","69","69","V/S","Volatile","Congruent","Circle","Triangle","Right","Left","Incorrect","-1","9","9","374","1824","0"
"6.6.3","win","2025-01-08","00:18:26","667ad3a189817cf129ae61e6","80_20_tri","18","punish_feedback","0","0","1","1","70","70","70","V/S","Volatile","Incongruent","Circle","Triangle","Right","Right","Correct","-1","8","10","329","1691","0"
"6.6.3","win","2025-01-08","00:18:26","667ad3a189817cf129ae61e6","80_20_tri","19","punish_feedback","0","0","1","1","71","71","71","V/S","Volatile","Congruent","Circle","Triangle","Right","Left","Incorrect","-1","7","11","379","1426","0"
"6.6.3","win","2025-01-08","00:18:26","667ad3a189817cf129ae61e6","80_20_tri","19","reward_feedback","0","0","1","1","72","72","72","V/S","Volatile","Incongruent","Circle","Triangle","Right","Left","Incorrect","1","8","12","356","1772","0"
"6.6.3","win","2025-01-08","00:18:26","667ad3a189817cf129ae61e6","80_20_tri","19","reward_feedback","0","0","1","1","73","73","73","V/S","Volatile","Congruent","Circle","Triangle","Right","Right","Correct","1","9","13","663","1242","0"
"6.6.3","win","2025-01-08","00:18:26","667ad3a189817cf129ae61e6","80_20_tri","19","punish_feedback","0","0","1","1","74","74","74","V/S","Volatile","Congruent","Circle","Triangle","Left","Right","Incorrect","-1","8","14","487","1425","0"
"6.6.3","win","2025-01-08","00:18:26","667ad3a189817cf129ae61e6","80_20_tri","19","reward_feedback","0","0","1","1","75","75","75","V/S","Volatile","Congruent","Circle","Triangle","Right","Right","Correct","1","9","15","533","1859","0"
"6.6.3","win","2025-01-08","00:18:26","667ad3a189817cf129ae61e6","80_20_tri","20","reward_feedback","0","0","1","1","76","76","76","V/S","Volatile","Congruent","Circle","Triangle","Right","Right","Correct","1","10","16","469","1748","0"
"6.6.3","win","2025-01-08","00:18:26","667ad3a189817cf129ae61e6","80_20_tri","20","reward_feedback","0","0","1","1","77","77","77","V/S","Volatile","Congruent","Circle","Triangle","Left","Left","Correct","1","11","17","392","1414","0"
"6.6.3","win","2025-01-08","00:18:26","667ad3a189817cf129ae61e6","80_20_tri","20","punish_feedback","0","0","1","1","78","78","78","V/S","Volatile","Congruent","Circle","Triangle","Left","Right","Incorrect","-1","10","18","549","1863","0"
"6.6.3","win","2025-01-08","00:18:26","667ad3a189817cf129ae61e6","80_20_tri","20","reward_feedback","0","0","1","1","79","79","79","V/S","Volatile","Incongruent","Circle","Triangle","Right","Left","Incorrect","1","11","19","419","1512","0"
"6.6.3","win","2025-01-08","00:18:26","667ad3a189817cf129ae61e6","80_20_tri","20","punish_feedback","0","0","1","1","80","80","80","V/S","Volatile","Congruent","Circle","Triangle","Right","Left","Incorrect","-1","10","20","374","1889","0"
"6.6.3","win","2025-01-08","00:18:26","667ad3a189817cf129ae61e6","80_20_cir","21","punish_feedback","0","0","1","1","81","81","1","V/S","Stable","Congruent","Circle","Circle","Left","Right","Incorrect","-1","9","0","459","1943","0"
"6.6.3","win","2025-01-08","00:18:26","667ad3a189817cf129ae61e6","80_20_cir","21","punish_feedback","0","0","1","1","82","82","2","V/S","Stable","Congruent","Circle","Circle","Right","Left","Incorrect","-1","8","0","389","1856","0"
"6.6.3","win","2025-01-08","00:18:26","667ad3a189817cf129ae61e6","80_20_cir","21","punish_feedback","0","0","1","1","83","83","3","V/S","Stable","Congruent","Circle","Circle","Left","Right","Incorrect","-1","7","0","536","1248","0"
"6.6.3","win","2025-01-08","00:18:26","667ad3a189817cf129ae61e6","80_20_cir","21","punish_feedback","0","0","1","1","84","84","4","V/S","Stable","Congruent","Circle","Circle","Left","Right","Incorrect","-1","6","0","524","1090","0"
"6.6.3","win","2025-01-08","00:18:26","667ad3a189817cf129ae61e6","80_20_cir","21","punish_feedback","0","0","1","1","85","85","5","V/S","Stable","Incongruent","Circle","Circle","Left","Left","Correct","-1","5","0","439","1747","0"
"6.6.3","win","2025-01-08","00:18:26","667ad3a189817cf129ae61e6","80_20_cir","22","punish_feedback","0","0","1","1","86","86","6","V/S","Stable","Congruent","Circle","Circle","Right","Left","Incorrect","-1","4","0","406","1245","0"
"6.6.3","win","2025-01-08","00:18:26","667ad3a189817cf129ae61e6","80_20_cir","22","punish_feedback","0","0","1","1","87","87","7","V/S","Stable","Congruent","Circle","Circle","Left","Right","Incorrect","-1","3","0","644","1218","0"
"6.6.3","win","2025-01-08","00:18:26","667ad3a189817cf129ae61e6","80_20_cir","22","reward_feedback","0","0","1","1","88","88","8","V/S","Stable","Incongruent","Circle","Circle","Right","Left","Incorrect","1","4","0","375","1515","0"
"6.6.3","win","2025-01-08","00:18:26","667ad3a189817cf129ae61e6","80_20_cir","22","reward_feedback","0","0","1","1","89","89","9","V/S","Stable","Congruent","Circle","Circle","Right","Right","Correct","1","5","0","538","1305","0"
"6.6.3","win","2025-01-08","00:18:26","667ad3a189817cf129ae61e6","80_20_cir","22","reward_feedback","0","0","1","1","90","90","10","V/S","Stable","Congruent","Circle","Circle","Left","Left","Correct","1","6","0","395","1209","0"
"6.6.3","win","2025-01-08","00:18:26","667ad3a189817cf129ae61e6","80_20_cir","23","punish_feedback","0","0","1","1","91","91","11","V/S","Stable","Incongruent","Circle","Circle","Right","Right","Correct","-1","5","0","305","1557","0"
"6.6.3","win","2025-01-08","00:18:26","667ad3a189817cf129ae61e6","80_20_cir","23","reward_feedback","0","0","1","1","92","92","12","V/S","Stable","Congruent","Circle","Circle","Right","Right","Correct","1","6","0","474","1429","0"
"6.6.3","win","2025-01-08","00:18:26","667ad3a189817cf129ae61e6","80_20_cir","23","punish_feedback","0","0","1","1","93","93","13","V/S","Stable","Congruent","Circle","Circle","Right","Left","Incorrect","-1","5","0","560","1673","0"
"6.6.3","win","2025-01-08","00:18:26","667ad3a189817cf129ae61e6","80_20_cir","23","punish_feedback","0","0","1","1","94","94","14","V/S","Stable","Congruent","Circle","Circle","Left","Right","Incorrect","-1","4","0","444","1178","0"
"6.6.3","win","2025-01-08","00:18:26","667ad3a189817cf129ae61e6","80_20_cir","23","reward_feedback","0","0","1","1","95","95","15","V/S","Stable","Congruent","Circle","Circle","Left","Left","Correct","1","5","0","542","1085","0"
"6.6.3","win","2025-01-08","00:18:26","667ad3a189817cf129ae61e6","80_20_cir","24","reward_feedback","0","0","1","1","96","96","16","V/S","Stable","Congruent","Circle","Circle","Right","Right","Correct","1","6","0","351","1480","0"
"6.6.3","win","2025-01-08","00:18:26","667ad3a189817cf129ae61e6","80_20_cir","24","reward_feedback","0","0","1","1","97","97","17","V/S","Stable","Congruent","Circle","Circle","Left","Left","Correct","1","7","0","424","1292","0"
"6.6.3","win","2025-01-08","00:18:26","667ad3a189817cf129ae61e6","80_20_cir","24","punish_feedback","0","0","1","1","98","98","18","V/S","Stable","Congruent","Circle","Circle","Left","Right","Incorrect","-1","6","0","364","1487","0"
"6.6.3","win","2025-01-08","00:18:26","667ad3a189817cf129ae61e6","80_20_cir","24","reward_feedback","0","0","1","1","99","99","19","V/S","Stable","Incongruent","Circle","Circle","Left","Right","Incorrect","1","7","0","545","1475","0"
"6.6.3","win","2025-01-08","00:18:26","667ad3a189817cf129ae61e6","80_20_cir","24","punish_feedback","0","0","1","1","100","100","20","V/S","Stable","Congruent","Circle","Circle","Right","Left","Incorrect","-1","6","0","502","1348","0"
"6.6.3","win","2025-01-08","00:18:26","667ad3a189817cf129ae61e6","80_20_cir","25","punish_feedback","0","0","1","1","101","101","21","V/S","Stable","Congruent","Circle","Circle","Right","Left","Incorrect","-1","5","0","279","1379","0"
"6.6.3","win","2025-01-08","00:18:26","667ad3a189817cf129ae61e6","80_20_cir","25","reward_feedback","0","0","1","1","102","102","22","V/S","Stable","Congruent","Circle","Circle","Right","Right","Correct","1","6","0","576","1327","0"
"6.6.3","win","2025-01-08","00:18:26","667ad3a189817cf129ae61e6","80_20_cir","25","reward_feedback","0","0","1","1","103","103","23","V/S","Stable","Congruent","Circle","Circle","Left","Left","Correct","1","7","0","423","1472","0"
"6.6.3","win","2025-01-08","00:18:26","667ad3a189817cf129ae61e6","80_20_cir","25","punish_feedback","0","0","1","1","104","104","24","V/S","Stable","Congruent","Circle","Circle","Right","Left","Incorrect","-1","6","0","328","1290","0"
"6.6.3","win","2025-01-08","00:18:26","667ad3a189817cf129ae61e6","80_20_cir","25","punish_feedback","0","0","1","1","105","105","25","V/S","Stable","Incongruent","Circle","Circle","Left","Left","Correct","-1","5","0","338","1397","0"
"6.6.3","win","2025-01-08","00:18:26","667ad3a189817cf129ae61e6","80_20_cir","26","reward_feedback","0","0","1","1","106","106","26","V/S","Stable","Incongruent","Circle","Circle","Left","Right","Incorrect","1","6","0","358","1353","0"
"6.6.3","win","2025-01-08","00:18:26","667ad3a189817cf129ae61e6","80_20_cir","26","punish_feedback","0","0","1","1","107","107","27","V/S","Stable","Congruent","Circle","Circle","Left","Right","Incorrect","-1","5","0","590","1985","0"
"6.6.3","win","2025-01-08","00:18:26","667ad3a189817cf129ae61e6","80_20_cir","26","punish_feedback","0","0","1","1","108","108","28","V/S","Stable","Congruent","Circle","Circle","Right","Left","Incorrect","-1","4","0","202","1509","0"
"6.6.3","win","2025-01-08","00:18:26","667ad3a189817cf129ae61e6","80_20_cir","26","punish_feedback","0","0","1","1","109","109","29","V/S","Stable","Congruent","Circle","Circle","Left","Right","Incorrect","-1","3","0","1010","1072","0"
"6.6.3","win","2025-01-08","00:18:26","667ad3a189817cf129ae61e6","80_20_cir","26","reward_feedback","0","0","1","1","110","110","30","V/S","Stable","Congruent","Circle","Circle","Left","Left","Correct","1","4","0","504","1022","0"
"6.6.3","win","2025-01-08","00:18:26","667ad3a189817cf129ae61e6","80_20_cir","27","punish_feedback","0","0","1","1","111","111","31","V/S","Stable","Congruent","Circle","Circle","Right","Left","Incorrect","-1","3","0","372","1160","0"
"6.6.3","win","2025-01-08","00:18:26","667ad3a189817cf129ae61e6","80_20_cir","27","reward_feedback","0","0","1","1","112","112","32","V/S","Stable","Congruent","Circle","Circle","Right","Right","Correct","1","4","0","454","1922","0"
"6.6.3","win","2025-01-08","00:18:26","667ad3a189817cf129ae61e6","80_20_cir","27","punish_feedback","0","0","1","1","113","113","33","V/S","Stable","Incongruent","Circle","Circle","Right","Right","Correct","-1","3","0","399","1678","0"
"6.6.3","win","2025-01-08","00:18:26","667ad3a189817cf129ae61e6","80_20_cir","27","reward_feedback","0","0","1","1","114","114","34","V/S","Stable","Congruent","Circle","Circle","Left","Left","Correct","1","4","0","624","1901","0"
"6.6.3","win","2025-01-08","00:18:26","667ad3a189817cf129ae61e6","80_20_cir","27","punish_feedback","0","0","1","1","115","115","35","V/S","Stable","Congruent","Circle","Circle","Left","Right","Incorrect","-1","3","0","382","1362","0"
"6.6.3","win","2025-01-08","00:18:26","667ad3a189817cf129ae61e6","80_20_cir","28","reward_feedback","0","0","1","1","116","116","36","V/S","Stable","Congruent","Circle","Circle","Right","Right","Correct","1","4","0","292","1398","0"
"6.6.3","win","2025-01-08","00:18:26","667ad3a189817cf129ae61e6","80_20_cir","28","punish_feedback","0","0","1","1","117","117","37","V/S","Stable","Incongruent","Circle","Circle","Left","Left","Correct","-1","3","0","496","1142","0"
"6.6.3","win","2025-01-08","00:18:26","667ad3a189817cf129ae61e6","80_20_cir","28","reward_feedback","0","0","1","1","118","118","38","V/S","Stable","Congruent","Circle","Circle","Right","Right","Correct","1","4","0","868","1162","0"
"6.6.3","win","2025-01-08","00:18:26","667ad3a189817cf129ae61e6","80_20_cir","28","punish_feedback","0","0","1","1","119","119","39","V/S","Stable","Congruent","Circle","Circle","Right","Left","Incorrect","-1","3","0","451","1213","0"
"6.6.3","win","2025-01-08","00:18:26","667ad3a189817cf129ae61e6","80_20_cir","28","punish_feedback","0","0","1","1","120","120","40","V/S","Stable","Congruent","Circle","Circle","Right","Left","Incorrect","-1","2","0","320","1916","0"
"6.6.3","win","2025-01-08","00:18:26","667ad3a189817cf129ae61e6","80_20_cir","29","reward_feedback","0","0","1","1","121","121","41","V/S","Stable","Congruent","Circle","Circle","Left","Left","Correct","1","3","0","376","1456","0"
"6.6.3","win","2025-01-08","00:18:26","667ad3a189817cf129ae61e6","80_20_cir","29","reward_feedback","0","0","1","1","122","122","42","V/S","Stable","Congruent","Circle","Circle","Right","Right","Correct","1","4","0","325","1911","0"
"6.6.3","win","2025-01-08","00:18:26","667ad3a189817cf129ae61e6","80_20_cir","29","punish_feedback","0","0","1","1","123","123","43","V/S","Stable","Congruent","Circle","Circle","Left","Right","Incorrect","-1","3","0","565","1685","0"
"6.6.3","win","2025-01-08","00:18:26","667ad3a189817cf129ae61e6","80_20_cir","29","reward_feedback","0","0","1","1","124","124","44","V/S","Stable","Congruent","Circle","Circle","Left","Left","Correct","1","4","0","328","1111","0"
"6.6.3","win","2025-01-08","00:18:26","667ad3a189817cf129ae61e6","80_20_cir","29","reward_feedback","0","0","1","1","125","125","45","V/S","Stable","Incongruent","Circle","Circle","Left","Right","Incorrect","1","5","0","387","1555","0"
"6.6.3","win","2025-01-08","00:18:26","667ad3a189817cf129ae61e6","80_20_cir","30","punish_feedback","0","0","1","1","126","126","46","V/S","Stable","Congruent","Circle","Circle","Left","Right","Incorrect","-1","4","0","514","1797","0"
"6.6.3","win","2025-01-08","00:18:26","667ad3a189817cf129ae61e6","80_20_cir","30","punish_feedback","0","0","1","1","127","127","47","V/S","Stable","Congruent","Circle","Circle","Left","Right","Incorrect","-1","3","0","339","1239","0"
"6.6.3","win","2025-01-08","00:18:26","667ad3a189817cf129ae61e6","80_20_cir","30","reward_feedback","0","0","1","1","128","128","48","V/S","Stable","Congruent","Circle","Circle","Left","Left","Correct","1","4","0","656","1404","0"
"6.6.3","win","2025-01-08","00:18:26","667ad3a189817cf129ae61e6","80_20_cir","30","punish_feedback","0","0","1","1","129","129","49","V/S","Stable","Congruent","Circle","Circle","Left","Right","Incorrect","-1","3","0","405","1171","0"
"6.6.3","win","2025-01-08","00:18:26","667ad3a189817cf129ae61e6","80_20_cir","30","punish_feedback","0","0","1","1","130","130","50","V/S","Stable","Incongruent","Circle","Circle","Left","Left","Correct","-1","2","0","415","1664","0"
"6.6.3","win","2025-01-08","00:18:26","667ad3a189817cf129ae61e6","80_20_cir","31","punish_feedback","0","0","1","1","131","131","51","V/S","Stable","Congruent","Circle","Circle","Left","Right","Incorrect","-1","1","0","365","1727","0"
"6.6.3","win","2025-01-08","00:18:26","667ad3a189817cf129ae61e6","80_20_cir","31","punish_feedback","0","0","1","1","132","132","52","V/S","Stable","Congruent","Circle","Circle","Right","Left","Incorrect","-1","0","0","416","1188","0"
"6.6.3","win","2025-01-08","00:18:26","667ad3a189817cf129ae61e6","80_20_cir","31","punish_feedback","0","0","1","1","133","133","53","V/S","Stable","Incongruent","Circle","Circle","Right","Right","Correct","-1","-1","0","532","1216","0"
"6.6.3","win","2025-01-08","00:18:26","667ad3a189817cf129ae61e6","80_20_cir","31","reward_feedback","0","0","1","1","134","134","54","V/S","Stable","Congruent","Circle","Circle","Right","Right","Correct","1","0","0","323","1631","0"
"6.6.3","win","2025-01-08","00:18:26","667ad3a189817cf129ae61e6","80_20_cir","31","reward_feedback","0","0","1","1","135","135","55","V/S","Stable","Congruent","Circle","Circle","Left","Left","Correct","1","1","0","436","1360","0"
"6.6.3","win","2025-01-08","00:18:26","667ad3a189817cf129ae61e6","80_20_cir","32","reward_feedback","0","0","1","1","136","136","56","V/S","Stable","Congruent","Circle","Circle","Left","Left","Correct","1","2","0","515","1281","0"
"6.6.3","win","2025-01-08","00:18:26","667ad3a189817cf129ae61e6","80_20_cir","32","punish_feedback","0","0","1","1","137","137","57","V/S","Stable","Congruent","Circle","Circle","Left","Right","Incorrect","-1","1","0","383","1703","0"
"6.6.3","win","2025-01-08","00:18:26","667ad3a189817cf129ae61e6","80_20_cir","32","punish_feedback","0","0","1","1","138","138","58","V/S","Stable","Congruent","Circle","Circle","Right","Left","Incorrect","-1","0","0","433","1930","0"
"6.6.3","win","2025-01-08","00:18:26","667ad3a189817cf129ae61e6","80_20_cir","32","reward_feedback","0","0","1","1","139","139","59","V/S","Stable","Incongruent","Circle","Circle","Left","Right","Incorrect","1","1","0","552","1394","0"
"6.6.3","win","2025-01-08","00:18:26","667ad3a189817cf129ae61e6","80_20_cir","32","reward_feedback","0","0","1","1","140","140","60","V/S","Stable","Congruent","Circle","Circle","Right","Right","Correct","1","2","0","343","1689","0"
"6.6.3","win","2025-01-08","00:18:26","667ad3a189817cf129ae61e6","80_20_cir","33","punish_feedback","0","0","1","1","141","141","61","V/S","Stable","Congruent","Circle","Circle","Right","Left","Incorrect","-1","1","0","704","1614","0"
"6.6.3","win","2025-01-08","00:18:26","667ad3a189817cf129ae61e6","80_20_cir","33","reward_feedback","0","0","1","1","142","142","62","V/S","Stable","Congruent","Circle","Circle","Right","Right","Correct","1","2","0","397","1776","0"
"6.6.3","win","2025-01-08","00:18:26","667ad3a189817cf129ae61e6","80_20_cir","33","punish_feedback","0","0","1","1","143","143","63","V/S","Stable","Congruent","Circle","Circle","Left","Right","Incorrect","-1","1","0","347","1710","0"
"6.6.3","win","2025-01-08","00:18:26","667ad3a189817cf129ae61e6","80_20_cir","33","reward_feedback","0","0","1","1","144","144","64","V/S","Stable","Congruent","Circle","Circle","Left","Left","Correct","1","2","0","550","1907","0"
"6.6.3","win","2025-01-08","00:18:26","667ad3a189817cf129ae61e6","80_20_cir","33","reward_feedback","0","0","1","1","145","145","65","V/S","Stable","Incongruent","Circle","Circle","Left","Right","Incorrect","1","3","0","769","1968","0"
"6.6.3","win","2025-01-08","00:18:26","667ad3a189817cf129ae61e6","80_20_cir","34","reward_feedback","0","0","1","1","146","146","66","V/S","Stable","Congruent","Circle","Circle","Right","Right","Correct","1","4","0","790","1398","0"
"6.6.3","win","2025-01-08","00:18:26","667ad3a189817cf129ae61e6","80_20_cir","34","punish_feedback","0","0","1","1","147","147","67","V/S","Stable","Congruent","Circle","Circle","Right","Left","Incorrect","-1","3","0","409","1932","0"
"6.6.3","win","2025-01-08","00:18:26","667ad3a189817cf129ae61e6","80_20_cir","34","reward_feedback","0","0","1","1","148","148","68","V/S","Stable","Congruent","Circle","Circle","Left","Left","Correct","1","4","0","786","1791","0"
"6.6.3","win","2025-01-08","00:18:26","667ad3a189817cf129ae61e6","80_20_cir","34","reward_feedback","0","0","1","1","149","149","69","V/S","Stable","Incongruent","Circle","Circle","Left","Right","Incorrect","1","5","0","369","1894","0"
"6.6.3","win","2025-01-08","00:18:26","667ad3a189817cf129ae61e6","80_20_cir","34","reward_feedback","0","0","1","1","150","150","70","V/S","Stable","Congruent","Circle","Circle","Left","Left","Correct","1","6","0","766","1869","0"
"6.6.3","win","2025-01-08","00:18:26","667ad3a189817cf129ae61e6","80_20_cir","35","reward_feedback","0","0","1","1","151","151","71","V/S","Stable","Congruent","Circle","Circle","Left","Left","Correct","1","7","0","436","1465","0"
"6.6.3","win","2025-01-08","00:18:26","667ad3a189817cf129ae61e6","80_20_cir","35","reward_feedback","0","0","1","1","152","152","72","V/S","Stable","Incongruent","Circle","Circle","Right","Left","Incorrect","1","8","0","563","1499","0"
"6.6.3","win","2025-01-08","00:18:26","667ad3a189817cf129ae61e6","80_20_cir","35","reward_feedback","0","0","1","1","153","153","73","V/S","Stable","Congruent","Circle","Circle","Left","Left","Correct","1","9","0","528","1607","0"
"6.6.3","win","2025-01-08","00:18:26","667ad3a189817cf129ae61e6","80_20_cir","35","reward_feedback","0","0","1","1","154","154","74","V/S","Stable","Congruent","Circle","Circle","Left","Left","Correct","1","10","0","494","1892","0"
"6.6.3","win","2025-01-08","00:18:26","667ad3a189817cf129ae61e6","80_20_cir","35","reward_feedback","0","0","1","1","155","155","75","V/S","Stable","Congruent","Circle","Circle","Right","Right","Correct","1","11","0","547","1396","0"
"6.6.3","win","2025-01-08","00:18:26","667ad3a189817cf129ae61e6","80_20_cir","36","reward_feedback","0","0","1","1","156","156","76","V/S","Stable","Incongruent","Circle","Circle","Left","Right","Incorrect","1","12","0","539","1945","0"
"6.6.3","win","2025-01-08","00:18:26","667ad3a189817cf129ae61e6","80_20_cir","36","reward_feedback","0","0","1","1","157","157","77","V/S","Stable","Congruent","Circle","Circle","Left","Left","Correct","1","13","0","766","1399","0"
"6.6.3","win","2025-01-08","00:18:26","667ad3a189817cf129ae61e6","80_20_cir","36","reward_feedback","0","0","1","1","158","158","78","V/S","Stable","Congruent","Circle","Circle","Right","Right","Correct","1","14","0","490","1863","0"
"6.6.3","win","2025-01-08","00:18:26","667ad3a189817cf129ae61e6","80_20_cir","36","punish_feedback","0","0","1","1","159","159","79","V/S","Stable","Congruent","Circle","Circle","Left","Right","Incorrect","-1","13","0","770","1172","0"
"6.6.3","win","2025-01-08","00:18:26","667ad3a189817cf129ae61e6","80_20_cir","36","punish_feedback","0","0","1","1","160","160","80","V/S","Stable","Congruent","Circle","Circle","Right","Left","Incorrect","-1","12","0","1555","1845","0"
"6.6.3","win","2025-01-08","00:18:26","667ad3a189817cf129ae61e6","DebriefSelection","39","DebriefSelection","StudentDebriefButton","0","1","1","160","160","80","V/S","Stable","Congruent","Circle","Circle","Right","Left","Incorrect","-1","12","0","1555","1845","0"
"6.6.3","win","2025-01-08","00:18:26","667ad3a189817cf129ae61e6","DebriefSelection","39","StudentDebrieftitle","Continue","1","1","1","160","160","80","V/S","Stable","Congruent","Circle","Circle","Right","Left","Incorrect","-1","12","0","1555","1845","0"
"6.6.3","win","2025-01-08","00:18:26","667ad3a189817cf129ae61e6","DebriefSelection","39","StudentDebrief1","Continue","1","1","1","160","160","80","V/S","Stable","Congruent","Circle","Circle","Right","Left","Incorrect","-1","12","0","1555","1845","0"
"6.6.3","win","2025-01-08","00:18:26","667ad3a189817cf129ae61e6","DebriefSelection","39","StudentDebrief2","Continue","1","1","1","160","160","80","V/S","Stable","Congruent","Circle","Circle","Right","Left","Incorrect","-1","12","0","1555","1845","0"
"6.6.3","win","2025-01-08","00:18:26","667ad3a189817cf129ae61e6","DebriefSelection","39","StudentDebrief3","Continue","1","1","1","160","160","80","V/S","Stable","Congruent","Circle","Circle","Right","Left","Incorrect","-1","12","0","1555","1845","0"
"6.6.3","win","2025-01-08","00:18:26","667ad3a189817cf129ae61e6","DebriefSelection","39","StudentDebrief4","Continue","1","1","1","160","160","80","V/S","Stable","Congruent","Circle","Circle","Right","Left","Incorrect","-1","12","0","1555","1845","0"
"6.6.3","win","2025-01-08","00:18:26","667ad3a189817cf129ae61e6","DebriefSelection","39","Submission","SubmissionButton","1","1","1","160","160","80","V/S","Stable","Congruent","Circle","Circle","Right","Left","Incorrect","-1","12","0","1555","1845","1"
"6.6.3","and","2025-01-08","10:40:02","65c6f3d412b2fc050e5380ca","Consent","1","Consenttitle","","1","0","0","0","0","0","V/S","Volatile","","Circle","0","","","","0","0","0","0","0","0"
"6.6.3","and","2025-01-08","10:40:02","65c6f3d412b2fc050e5380ca","Consent","1","forced_exit","finish","0","0","0","0","0","0","V/S","Volatile","","Circle","0","","","","0","0","0","0","0","0"
"6.6.3","win","2025-01-08","09:23:31","66c9db338e03f4445caca660","Consent","1","Consenttitle","","1","0","0","0","0","0","V/S","Volatile","","Triangle","0","","","","0","0","0","0","0","0"
"6.6.3","win","2025-01-08","09:23:31","66c9db338e03f4445caca660","Consent","1","consent_1option1","Agree","1","0","0","0","0","0","V/S","Volatile","","Triangle","0","","","","0","0","0","0","0","0"
"6.6.3","win","2025-01-08","09:23:31","66c9db338e03f4445caca660","Consent","1","consent_2option1","Agree","1","0","0","0","0","0","V/S","Volatile","","Triangle","0","","","","0","0","0","0","0","0"
"6.6.3","win","2025-01-08","09:23:31","66c9db338e03f4445caca660","Consent","1","consent_3option1","Agree","1","0","0","0","0","0","V/S","Volatile","","Triangle","0","","","","0","0","0","0","0","0"
"6.6.3","win","2025-01-08","09:23:31","66c9db338e03f4445caca660","Consent","1","consent_4option1","Agree","1","0","0","0","0","0","V/S","Volatile","","Triangle","0","","","","0","0","0","0","0","0"
"6.6.3","win","2025-01-08","09:23:31","66c9db338e03f4445caca660","Consent","1","consent_5option1","Agree","1","0","0","0","0","0","V/S","Volatile","","Triangle","0","","","","0","0","0","0","0","0"
"6.6.3","win","2025-01-08","09:23:31","66c9db338e03f4445caca660","Consent","1","consent_6option1","Agree","1","0","0","0","0","0","V/S","Volatile","","Triangle","0","","","","0","0","0","0","0","0"
"6.6.3","win","2025-01-08","09:23:31","66c9db338e03f4445caca660","Consent","1","consent_7option1","Agree","1","0","0","0","0","0","V/S","Volatile","","Triangle","0","","","","0","0","0","0","0","0"
"6.6.3","win","2025-01-08","09:23:31","66c9db338e03f4445caca660","Consent","1","consent_8option1","Agree","1","0","0","0","0","0","V/S","Volatile","","Triangle","0","","","","0","0","0","0","0","0"
"6.6.3","win","2025-01-08","09:23:31","66c9db338e03f4445caca660","Consent","1","consent_9option1","Agree","1","0","0","0","0","0","V/S","Volatile","","Triangle","0","","","","0","0","0","0","0","0"
"6.6.3","win","2025-01-08","09:23:31","66c9db338e03f4445caca660","Consent","1","consent_10option1","Agree","1","0","0","0","0","0","V/S","Volatile","","Triangle","0","","","","0","0","0","0","0","0"
"6.6.3","win","2025-01-08","09:23:31","66c9db338e03f4445caca660","Consent","1","consent_11option1","Agree","1","0","0","0","0","0","V/S","Volatile","","Triangle","0","","","","0","0","0","0","0","0"
"6.6.3","win","2025-01-08","09:23:31","66c9db338e03f4445caca660","Consent","1","consent_12option1","Agree","1","0","0","0","0","0","V/S","Volatile","","Triangle","0","","","","0","0","0","0","0","0"
"6.6.3","win","2025-01-08","09:23:31","66c9db338e03f4445caca660","80_20_tri","5","punish_feedback","0","0","1","1","1","1","1","V/S","Volatile","Congruent","Triangle","Triangle","Left","Right","Incorrect","-1","-1","1","428","1843","0"
"6.6.3","win","2025-01-08","09:23:31","66c9db338e03f4445caca660","80_20_tri","5","reward_feedback","0","0","1","1","2","2","2","V/S","Volatile","Congruent","Triangle","Triangle","Left","Left","Correct","1","0","2","454","1398","0"
"6.6.3","win","2025-01-08","09:23:31","66c9db338e03f4445caca660","80_20_tri","5","reward_feedback","0","0","1","1","3","3","3","V/S","Volatile","Congruent","Triangle","Triangle","Right","Right","Correct","1","1","3","511","1821","0"
"6.6.3","win","2025-01-08","09:23:31","66c9db338e03f4445caca660","80_20_tri","5","reward_feedback","0","0","1","1","4","4","4","V/S","Volatile","Congruent","Triangle","Triangle","Right","Right","Correct","1","2","4","446","1402","0"
"6.6.3","win","2025-01-08","09:23:31","66c9db338e03f4445caca660","80_20_tri","5","punish_feedback","0","0","1","1","5","5","5","V/S","Volatile","Incongruent","Triangle","Triangle","Left","Left","Correct","-1","1","5","450","1347","0"
"6.6.3","win","2025-01-08","09:23:31","66c9db338e03f4445caca660","80_20_tri","6","reward_feedback","0","0","1","1","6","6","6","V/S","Volatile","Congruent","Triangle","Triangle","Right","Right","Correct","1","2","6","838","1512","0"
"6.6.3","win","2025-01-08","09:23:31","66c9db338e03f4445caca660","80_20_tri","6","punish_feedback","0","0","1","1","7","7","7","V/S","Volatile","Congruent","Triangle","Triangle","Right","Left","Incorrect","-1","1","7","303","1321","0"
"6.6.3","win","2025-01-08","09:23:31","66c9db338e03f4445caca660","80_20_tri","6","reward_feedback","0","0","1","1","8","8","8","V/S","Volatile","Congruent","Triangle","Triangle","Left","Left","Correct","1","2","8","151","1117","0"
"6.6.3","win","2025-01-08","09:23:31","66c9db338e03f4445caca660","80_20_tri","6","reward_feedback","0","0","1","1","9","9","9","V/S","Volatile","Incongruent","Triangle","Triangle","Left","Right","Incorrect","1","3","9","499","1396","0"
"6.6.3","win","2025-01-08","09:23:31","66c9db338e03f4445caca660","80_20_tri","6","reward_feedback","0","0","1","1","10","10","10","V/S","Volatile","Congruent","Triangle","Triangle","Right","Right","Correct","1","4","10","353","1397","0"
"6.6.3","win","2025-01-08","09:23:31","66c9db338e03f4445caca660","80_20_tri","7","punish_feedback","0","0","1","1","11","11","11","V/S","Volatile","Congruent","Triangle","Triangle","Left","Right","Incorrect","-1","3","11","339","1362","0"
"6.6.3","win","2025-01-08","09:23:31","66c9db338e03f4445caca660","80_20_tri","7","punish_feedback","0","0","1","1","12","12","12","V/S","Volatile","Congruent","Triangle","Triangle","Right","Left","Incorrect","-1","2","12","436","1758","0"
"6.6.3","win","2025-01-08","09:23:31","66c9db338e03f4445caca660","80_20_tri","7","punish_feedback","0","0","1","1","13","13","13","V/S","Volatile","Incongruent","Triangle","Triangle","Left","Left","Correct","-1","1","13","412","1617","0"
"6.6.3","win","2025-01-08","09:23:31","66c9db338e03f4445caca660","80_20_tri","7","reward_feedback","0","0","1","1","14","14","14","V/S","Volatile","Congruent","Triangle","Triangle","Left","Left","Correct","1","2","14","650","1937","0"
"6.6.3","win","2025-01-08","09:23:31","66c9db338e03f4445caca660","80_20_tri","7","reward_feedback","0","0","1","1","15","15","15","V/S","Volatile","Congruent","Triangle","Triangle","Right","Right","Correct","1","3","15","577","1455","0"
"6.6.3","win","2025-01-08","09:23:31","66c9db338e03f4445caca660","80_20_tri","8","reward_feedback","0","0","1","1","16","16","16","V/S","Volatile","Congruent","Triangle","Triangle","Right","Right","Correct","1","4","16","444","1608","0"
"6.6.3","win","2025-01-08","09:23:31","66c9db338e03f4445caca660","80_20_tri","8","reward_feedback","0","0","1","1","17","17","17","V/S","Volatile","Congruent","Triangle","Triangle","Right","Right","Correct","1","5","17","447","1984","0"
"6.6.3","win","2025-01-08","09:23:31","66c9db338e03f4445caca660","80_20_tri","8","reward_feedback","0","0","1","1","18","18","18","V/S","Volatile","Congruent","Triangle","Triangle","Right","Right","Correct","1","6","18","498","1797","0"
"6.6.3","win","2025-01-08","09:23:31","66c9db338e03f4445caca660","80_20_tri","8","punish_feedback","0","0","1","1","19","19","19","V/S","Volatile","Incongruent","Triangle","Triangle","Right","Right","Correct","-1","5","19","387","1604","0"
"6.6.3","win","2025-01-08","09:23:31","66c9db338e03f4445caca660","80_20_tri","8","reward_feedback","0","0","1","1","20","20","20","V/S","Volatile","Congruent","Triangle","Triangle","Right","Right","Correct","1","6","20","886","1913","0"
"6.6.3","win","2025-01-08","09:23:31","66c9db338e03f4445caca660","80_20_cir","9","punish_feedback","0","0","1","1","21","21","21","V/S","Volatile","Congruent","Triangle","Circle","Right","Left","Incorrect","-1","5","1","514","1262","0"
"6.6.3","win","2025-01-08","09:23:31","66c9db338e03f4445caca660","80_20_cir","9","punish_feedback","0","0","1","1","22","22","22","V/S","Volatile","Congruent","Triangle","Circle","Right","Left","Incorrect","-1","4","2","475","1915","0"
"6.6.3","win","2025-01-08","09:23:31","66c9db338e03f4445caca660","80_20_cir","9","punish_feedback","0","0","1","1","23","23","23","V/S","Volatile","Congruent","Triangle","Circle","Right","Left","Incorrect","-1","3","3","568","1417","0"
"6.6.3","win","2025-01-08","09:23:31","66c9db338e03f4445caca660","80_20_cir","9","reward_feedback","0","0","1","1","24","24","24","V/S","Volatile","Incongruent","Triangle","Circle","Left","Right","Incorrect","1","4","4","975","1570","0"
"6.6.3","win","2025-01-08","09:23:31","66c9db338e03f4445caca660","80_20_cir","9","reward_feedback","0","0","1","1","25","25","25","V/S","Volatile","Congruent","Triangle","Circle","Right","Right","Correct","1","5","5","905","1301","0"
"6.6.3","win","2025-01-08","09:23:31","66c9db338e03f4445caca660","80_20_cir","10","reward_feedback","0","0","1","1","26","26","26","V/S","Volatile","Incongruent","Triangle","Circle","Left","Right","Incorrect","1","6","6","869","1796","0"
"6.6.3","win","2025-01-08","09:23:31","66c9db338e03f4445caca660","80_20_cir","10","reward_feedback","0","0","1","1","27","27","27","V/S","Volatile","Congruent","Triangle","Circle","Right","Right","Correct","1","7","7","1317","1920","0"
"6.6.3","win","2025-01-08","09:23:31","66c9db338e03f4445caca660","80_20_cir","10","reward_feedback","0","0","1","1","28","28","28","V/S","Volatile","Congruent","Triangle","Circle","Right","Right","Correct","1","8","8","1234","1400","0"
"6.6.3","win","2025-01-08","09:23:31","66c9db338e03f4445caca660","80_20_cir","10","punish_feedback","0","0","1","1","29","29","29","V/S","Volatile","Congruent","Triangle","Circle","Left","Right","Incorrect","-1","7","9","706","1812","0"
"6.6.3","win","2025-01-08","09:23:31","66c9db338e03f4445caca660","80_20_cir","10","reward_feedback","0","0","1","1","30","30","30","V/S","Volatile","Congruent","Triangle","Circle","Left","Left","Correct","1","8","10","699","1491","0"
"6.6.3","win","2025-01-08","09:23:31","66c9db338e03f4445caca660","80_20_cir","11","punish_feedback","0","0","1","1","31","31","31","V/S","Volatile","Congruent","Triangle","Circle","Left","Right","Incorrect","-1","7","11","613","1896","0"
"6.6.3","win","2025-01-08","09:23:31","66c9db338e03f4445caca660","80_20_cir","11","punish_feedback","0","0","1","1","32","32","32","V/S","Volatile","Incongruent","Triangle","Circle","Left","Left","Correct","-1","6","12","152","1739","0"
"6.6.3","win","2025-01-08","09:23:31","66c9db338e03f4445caca660","80_20_cir","11","punish_feedback","0","0","1","1","33","33","33","V/S","Volatile","Congruent","Triangle","Circle","Left","Right","Incorrect","-1","5","13","557","1264","0"
"6.6.3","win","2025-01-08","09:23:31","66c9db338e03f4445caca660","80_20_cir","11","punish_feedback","0","0","1","1","34","34","34","V/S","Volatile","Congruent","Triangle","Circle","Left","Right","Incorrect","-1","4","14","220","1552","0"
"6.6.3","win","2025-01-08","09:23:31","66c9db338e03f4445caca660","80_20_cir","11","punish_feedback","0","0","1","1","35","35","35","V/S","Volatile","Congruent","Triangle","Circle","Right","Left","Incorrect","-1","3","15","268","1432","0"
"6.6.3","win","2025-01-08","09:23:31","66c9db338e03f4445caca660","80_20_cir","12","punish_feedback","0","0","1","1","36","36","36","V/S","Volatile","Incongruent","Triangle","Circle","Left","Left","Correct","-1","2","16","242","1642","0"
"6.6.3","win","2025-01-08","09:23:31","66c9db338e03f4445caca660","80_20_cir","12","punish_feedback","0","0","1","1","37","37","37","V/S","Volatile","Congruent","Triangle","Circle","Right","Left","Incorrect","-1","1","17","17","1842","0"
"6.6.3","win","2025-01-08","09:23:31","66c9db338e03f4445caca660","80_20_cir","12","punish_feedback","0","0","1","1","38","38","38","V/S","Volatile","Congruent","Triangle","Circle","Right","Left","Incorrect","-1","0","18","533","1024","0"
"6.6.3","win","2025-01-08","09:23:31","66c9db338e03f4445caca660","80_20_cir","12","reward_feedback","0","0","1","1","39","39","39","V/S","Volatile","Congruent","Triangle","Circle","Left","Left","Correct","1","1","19","51","1941","0"
"6.6.3","win","2025-01-08","09:23:31","66c9db338e03f4445caca660","80_20_cir","12","reward_feedback","0","0","1","1","40","40","40","V/S","Volatile","Congruent","Triangle","Circle","Left","Left","Correct","1","2","20","426","1818","0"
"6.6.3","win","2025-01-08","09:23:31","66c9db338e03f4445caca660","80_20_tri","13","reward_feedback","0","0","1","1","41","41","41","V/S","Volatile","Congruent","Triangle","Triangle","Left","Left","Correct","1","3","1","1719","1925","0"
"6.6.3","win","2025-01-08","09:23:31","66c9db338e03f4445caca660","80_20_tri","13","reward_feedback","0","0","1","1","42","42","42","V/S","Volatile","Congruent","Triangle","Triangle","Left","Left","Correct","1","4","2","392","1596","0"
"6.6.3","win","2025-01-08","09:23:31","66c9db338e03f4445caca660","80_20_tri","13","reward_feedback","0","0","1","1","43","43","43","V/S","Volatile","Congruent","Triangle","Triangle","Right","Right","Correct","1","5","3","418","1856","0"
"6.6.3","win","2025-01-08","09:23:31","66c9db338e03f4445caca660","80_20_tri","13","punish_feedback","0","0","1","1","44","44","44","V/S","Volatile","Incongruent","Triangle","Triangle","Right","Right","Correct","-1","4","4","281","1733","0"
"6.6.3","win","2025-01-08","09:23:31","66c9db338e03f4445caca660","80_20_tri","13","reward_feedback","0","0","1","1","45","45","45","V/S","Volatile","Congruent","Triangle","Triangle","Right","Right","Correct","1","5","5","777","1667","0"
"6.6.3","win","2025-01-08","09:23:31","66c9db338e03f4445caca660","80_20_tri","14","reward_feedback","0","0","1","1","46","46","46","V/S","Volatile","Congruent","Triangle","Triangle","Right","Right","Correct","1","6","6","299","1793","0"
"6.6.3","win","2025-01-08","09:23:31","66c9db338e03f4445caca660","80_20_tri","14","punish_feedback","0","0","1","1","47","47","47","V/S","Volatile","Incongruent","Triangle","Triangle","Right","Right","Correct","-1","5","7","336","2000","0"
"6.6.3","win","2025-01-08","09:23:31","66c9db338e03f4445caca660","80_20_tri","14","punish_feedback","0","0","1","1","48","48","48","V/S","Volatile","Congruent","Triangle","Triangle","Left","Right","Incorrect","-1","4","8","336","1999","0"
"6.6.3","win","2025-01-08","09:23:31","66c9db338e03f4445caca660","80_20_tri","14","punish_feedback","0","0","1","1","49","49","49","V/S","Volatile","Congruent","Triangle","Triangle","Left","Right","Incorrect","-1","3","9","539","1052","0"
"6.6.3","win","2025-01-08","09:23:31","66c9db338e03f4445caca660","80_20_tri","14","punish_feedback","0","0","1","1","50","50","50","V/S","Volatile","Congruent","Triangle","Triangle","Right","Left","Incorrect","-1","2","10","312","1434","0"
"6.6.3","win","2025-01-08","09:23:31","66c9db338e03f4445caca660","80_20_tri","15","punish_feedback","0","0","1","1","51","51","51","V/S","Volatile","Incongruent","Triangle","Triangle","Right","Right","Correct","-1","1","11","136","1430","0"
"6.6.3","win","2025-01-08","09:23:31","66c9db338e03f4445caca660","80_20_tri","15","reward_feedback","0","0","1","1","52","52","52","V/S","Volatile","Congruent","Triangle","Triangle","Left","Left","Correct","1","2","12","482","1492","0"
"6.6.3","win","2025-01-08","09:23:31","66c9db338e03f4445caca660","80_20_tri","15","punish_feedback","0","0","1","1","53","53","53","V/S","Volatile","Congruent","Triangle","Triangle","Right","Left","Incorrect","-1","1","13","349","1867","0"
"6.6.3","win","2025-01-08","09:23:31","66c9db338e03f4445caca660","80_20_tri","15","reward_feedback","0","0","1","1","54","54","54","V/S","Volatile","Congruent","Triangle","Triangle","Right","Right","Correct","1","2","14","493","1207","0"
"6.6.3","win","2025-01-08","09:23:31","66c9db338e03f4445caca660","80_20_tri","15","punish_feedback","0","0","1","1","55","55","55","V/S","Volatile","Congruent","Triangle","Triangle","Left","Right","Incorrect","-1","1","15","435","1472","0"
"6.6.3","win","2025-01-08","09:23:31","66c9db338e03f4445caca660","80_20_tri","16","reward_feedback","0","0","1","1","56","56","56","V/S","Volatile","Congruent","Triangle","Triangle","Right","Right","Correct","1","2","16","788","1524","0"
"6.6.3","win","2025-01-08","09:23:31","66c9db338e03f4445caca660","80_20_tri","16","punish_feedback","0","0","1","1","57","57","57","V/S","Volatile","Incongruent","Triangle","Triangle","Left","Left","Correct","-1","1","17","449","1669","0"
"6.6.3","win","2025-01-08","09:23:31","66c9db338e03f4445caca660","80_20_tri","16","reward_feedback","0","0","1","1","58","58","58","V/S","Volatile","Congruent","Triangle","Triangle","Right","Right","Correct","1","2","18","303","1392","0"
"6.6.3","win","2025-01-08","09:23:31","66c9db338e03f4445caca660","80_20_tri","16","reward_feedback","0","0","1","1","59","59","59","V/S","Volatile","Congruent","Triangle","Triangle","Left","Left","Correct","1","3","19","406","1740","0"
"6.6.3","win","2025-01-08","09:23:31","66c9db338e03f4445caca660","80_20_tri","16","reward_feedback","0","0","1","1","60","60","60","V/S","Volatile","Congruent","Triangle","Triangle","Left","Left","Correct","1","4","20","408","1319","0"
"6.6.3","win","2025-01-08","09:23:31","66c9db338e03f4445caca660","80_20_cir","17","punish_feedback","0","0","1","1","61","61","61","V/S","Volatile","Congruent","Triangle","Circle","Right","Left","Incorrect","-1","3","1","413","1740","0"
"6.6.3","win","2025-01-08","09:23:31","66c9db338e03f4445caca660","80_20_cir","17","reward_feedback","0","0","1","1","62","62","62","V/S","Volatile","Incongruent","Triangle","Circle","Left","Right","Incorrect","1","4","2","337","1603","0"
"6.6.3","win","2025-01-08","09:23:31","66c9db338e03f4445caca660","80_20_cir","17","punish_feedback","0","0","1","1","63","63","63","V/S","Volatile","Congruent","Triangle","Circle","Right","Left","Incorrect","-1","3","3","328","1753","0"
"6.6.3","win","2025-01-08","09:23:31","66c9db338e03f4445caca660","80_20_cir","17","punish_feedback","0","0","1","1","64","64","64","V/S","Volatile","Congruent","Triangle","Circle","Right","Left","Incorrect","-1","2","4","405","1877","0"
"6.6.3","win","2025-01-08","09:23:31","66c9db338e03f4445caca660","80_20_cir","17","punish_feedback","0","0","1","1","65","65","65","V/S","Volatile","Congruent","Triangle","Circle","Left","Right","Incorrect","-1","1","5","830","1559","0"
"6.6.3","win","2025-01-08","09:23:31","66c9db338e03f4445caca660","80_20_cir","18","punish_feedback","0","0","1","1","66","66","66","V/S","Volatile","Congruent","Triangle","Circle","Right","Left","Incorrect","-1","0","6","370","1274","0"
"6.6.3","win","2025-01-08","09:23:31","66c9db338e03f4445caca660","80_20_cir","18","punish_feedback","0","0","1","1","67","67","67","V/S","Volatile","Congruent","Triangle","Circle","Left","Right","Incorrect","-1","-1","7","349","1572","0"
"6.6.3","win","2025-01-08","09:23:31","66c9db338e03f4445caca660","80_20_cir","18","reward_feedback","0","0","1","1","68","68","68","V/S","Volatile","Incongruent","Triangle","Circle","Right","Left","Incorrect","1","0","8","432","1026","0"
"6.6.3","win","2025-01-08","09:23:31","66c9db338e03f4445caca660","80_20_cir","18","punish_feedback","0","0","1","1","69","69","69","V/S","Volatile","Congruent","Triangle","Circle","Left","Right","Incorrect","-1","-1","9","516","1436","0"
"6.6.3","win","2025-01-08","09:23:31","66c9db338e03f4445caca660","80_20_cir","18","reward_feedback","0","0","1","1","70","70","70","V/S","Volatile","Congruent","Triangle","Circle","Left","Left","Correct","1","0","10","565","1882","0"
"6.6.3","win","2025-01-08","09:23:31","66c9db338e03f4445caca660","80_20_cir","19","punish_feedback","0","0","1","1","71","71","71","V/S","Volatile","Congruent","Triangle","Circle","Left","Right","Incorrect","-1","-1","11","503","1008","0"
"6.6.3","win","2025-01-08","09:23:31","66c9db338e03f4445caca660","80_20_cir","19","reward_feedback","0","0","1","1","72","72","72","V/S","Volatile","Congruent","Triangle","Circle","Left","Left","Correct","1","0","12","498","1283","0"
"6.6.3","win","2025-01-08","09:23:31","66c9db338e03f4445caca660","80_20_cir","19","reward_feedback","0","0","1","1","73","73","73","V/S","Volatile","Congruent","Triangle","Circle","Right","Right","Correct","1","1","13","601","1370","0"
"6.6.3","win","2025-01-08","09:23:31","66c9db338e03f4445caca660","80_20_cir","19","punish_feedback","0","0","1","1","74","74","74","V/S","Volatile","Incongruent","Triangle","Circle","Right","Right","Correct","-1","0","14","642","1395","0"
"6.6.3","win","2025-01-08","09:23:31","66c9db338e03f4445caca660","80_20_cir","19","punish_feedback","0","0","1","1","75","75","75","V/S","Volatile","Congruent","Triangle","Circle","Left","Right","Incorrect","-1","-1","15","476","1069","0"
"6.6.3","win","2025-01-08","09:23:31","66c9db338e03f4445caca660","80_20_cir","20","punish_feedback","0","0","1","1","76","76","76","V/S","Volatile","Congruent","Triangle","Circle","Right","Left","Incorrect","-1","-2","16","363","1848","0"
"6.6.3","win","2025-01-08","09:23:31","66c9db338e03f4445caca660","80_20_cir","20","reward_feedback","0","0","1","1","77","77","77","V/S","Volatile","Congruent","Triangle","Circle","Right","Right","Correct","1","-1","17","350","1663","0"
"6.6.3","win","2025-01-08","09:23:31","66c9db338e03f4445caca660","80_20_cir","20","punish_feedback","0","0","1","1","78","78","78","V/S","Volatile","Congruent","Triangle","Circle","Left","Right","Incorrect","-1","-2","18","109","1807","0"
"6.6.3","win","2025-01-08","09:23:31","66c9db338e03f4445caca660","80_20_cir","20","reward_feedback","0","0","1","1","79","79","79","V/S","Volatile","Congruent","Triangle","Circle","Right","Right","Correct","1","-1","19","84","1399","0"
"6.6.3","win","2025-01-08","09:23:31","66c9db338e03f4445caca660","80_20_cir","20","punish_feedback","0","0","1","1","80","80","80","V/S","Volatile","Incongruent","Triangle","Circle","Right","Right","Correct","-1","-2","20","519","1177","0"
"6.6.3","win","2025-01-08","09:23:31","66c9db338e03f4445caca660","80_20_tri","21","punish_feedback","0","0","1","1","81","81","1","V/S","Stable","Congruent","Triangle","Triangle","Left","Right","Incorrect","-1","-3","0","439","1424","0"
"6.6.3","win","2025-01-08","09:23:31","66c9db338e03f4445caca660","80_20_tri","21","punish_feedback","0","0","1","1","82","82","2","V/S","Stable","Incongruent","Triangle","Triangle","Right","Right","Correct","-1","-4","0","91","1779","0"
"6.6.3","win","2025-01-08","09:23:31","66c9db338e03f4445caca660","80_20_tri","21","punish_feedback","0","0","1","1","83","83","3","V/S","Stable","Congruent","Triangle","Triangle","Right","Left","Incorrect","-1","-5","0","340","1618","0"
"6.6.3","win","2025-01-08","09:23:31","66c9db338e03f4445caca660","80_20_tri","21","punish_feedback","0","0","1","1","84","84","4","V/S","Stable","Congruent","Triangle","Triangle","Left","Right","Incorrect","-1","-6","0","398","1605","0"
"6.6.3","win","2025-01-08","09:23:31","66c9db338e03f4445caca660","80_20_tri","21","punish_feedback","0","0","1","1","85","85","5","V/S","Stable","Congruent","Triangle","Triangle","Left","Right","Incorrect","-1","-7","0","443","1356","0"
"6.6.3","win","2025-01-08","09:23:31","66c9db338e03f4445caca660","80_20_tri","22","punish_feedback","0","0","1","1","86","86","6","V/S","Stable","Congruent","Triangle","Triangle","Right","Left","Incorrect","-1","-8","0","745","1022","0"
"6.6.3","win","2025-01-08","09:23:31","66c9db338e03f4445caca660","80_20_tri","22","punish_feedback","0","0","1","1","87","87","7","V/S","Stable","Congruent","Triangle","Triangle","Right","Left","Incorrect","-1","-9","0","461","1588","0"
"6.6.3","win","2025-01-08","09:23:31","66c9db338e03f4445caca660","80_20_tri","22","punish_feedback","0","0","1","1","88","88","8","V/S","Stable","Congruent","Triangle","Triangle","Left","Right","Incorrect","-1","-10","0","375","1638","0"
"6.6.3","win","2025-01-08","09:23:31","66c9db338e03f4445caca660","80_20_tri","22","punish_feedback","0","0","1","1","89","89","9","V/S","Stable","Incongruent","Triangle","Triangle","Left","Left","Correct","-1","-11","0","421","1051","0"
"6.6.3","win","2025-01-08","09:23:31","66c9db338e03f4445caca660","80_20_tri","22","punish_feedback","0","0","1","1","90","90","10","V/S","Stable","Congruent","Triangle","Triangle","Right","Left","Incorrect","-1","-12","0","502","1171","0"
"6.6.3","win","2025-01-08","09:23:31","66c9db338e03f4445caca660","80_20_tri","23","reward_feedback","0","0","1","1","91","91","11","V/S","Stable","Incongruent","Triangle","Triangle","Left","Right","Incorrect","1","-11","0","818","1531","0"
"6.6.3","win","2025-01-08","09:23:31","66c9db338e03f4445caca660","80_20_tri","23","punish_feedback","0","0","1","1","92","92","12","V/S","Stable","Congruent","Triangle","Triangle","Left","Right","Incorrect","-1","-12","0","414","1569","0"
"6.6.3","win","2025-01-08","09:23:31","66c9db338e03f4445caca660","80_20_tri","23","reward_feedback","0","0","1","1","93","93","13","V/S","Stable","Congruent","Triangle","Triangle","Right","Right","Correct","1","-11","0","353","1403","0"
"6.6.3","win","2025-01-08","09:23:31","66c9db338e03f4445caca660","80_20_tri","23","reward_feedback","0","0","1","1","94","94","14","V/S","Stable","Congruent","Triangle","Triangle","Left","Left","Correct","1","-10","0","497","1781","0"
"6.6.3","win","2025-01-08","09:23:31","66c9db338e03f4445caca660","80_20_tri","23","reward_feedback","0","0","1","1","95","95","15","V/S","Stable","Congruent","Triangle","Triangle","Left","Left","Correct","1","-9","0","529","1332","0"
"6.6.3","win","2025-01-08","09:23:31","66c9db338e03f4445caca660","80_20_tri","24","reward_feedback","0","0","1","1","96","96","16","V/S","Stable","Congruent","Triangle","Triangle","Right","Right","Correct","1","-8","0","400","1263","0"
"6.6.3","win","2025-01-08","09:23:31","66c9db338e03f4445caca660","80_20_tri","24","reward_feedback","0","0","1","1","97","97","17","V/S","Stable","Congruent","Triangle","Triangle","Left","Left","Correct","1","-7","0","398","1351","0"
"6.6.3","win","2025-01-08","09:23:31","66c9db338e03f4445caca660","80_20_tri","24","punish_feedback","0","0","1","1","98","98","18","V/S","Stable","Incongruent","Triangle","Triangle","Right","Right","Correct","-1","-8","0","474","1828","0"
"6.6.3","win","2025-01-08","09:23:31","66c9db338e03f4445caca660","80_20_tri","24","reward_feedback","0","0","1","1","99","99","19","V/S","Stable","Congruent","Triangle","Triangle","Left","Left","Correct","1","-7","0","401","1298","0"
"6.6.3","win","2025-01-08","09:23:31","66c9db338e03f4445caca660","80_20_tri","24","reward_feedback","0","0","1","1","100","100","20","V/S","Stable","Congruent","Triangle","Triangle","Right","Right","Correct","1","-6","0","418","1123","0"
"6.6.3","win","2025-01-08","09:23:31","66c9db338e03f4445caca660","80_20_tri","25","punish_feedback","0","0","1","1","101","101","21","V/S","Stable","Incongruent","Triangle","Triangle","Right","Right","Correct","-1","-7","0","608","1097","0"
"6.6.3","win","2025-01-08","09:23:31","66c9db338e03f4445caca660","80_20_tri","25","reward_feedback","0","0","1","1","102","102","22","V/S","Stable","Congruent","Triangle","Triangle","Right","Right","Correct","1","-6","0","461","1697","0"
"6.6.3","win","2025-01-08","09:23:31","66c9db338e03f4445caca660","80_20_tri","25","reward_feedback","0","0","1","1","103","103","23","V/S","Stable","Congruent","Triangle","Triangle","Right","Right","Correct","1","-5","0","406","1776","0"
"6.6.3","win","2025-01-08","09:23:31","66c9db338e03f4445caca660","80_20_tri","25","reward_feedback","0","0","1","1","104","104","24","V/S","Stable","Congruent","Triangle","Triangle","Left","Left","Correct","1","-4","0","583","1033","0"
"6.6.3","win","2025-01-08","09:23:31","66c9db338e03f4445caca660","80_20_tri","25","reward_feedback","0","0","1","1","105","105","25","V/S","Stable","Congruent","Triangle","Triangle","Left","Left","Correct","1","-3","0","562","1712","0"
"6.6.3","win","2025-01-08","09:23:31","66c9db338e03f4445caca660","80_20_tri","26","punish_feedback","0","0","1","1","106","106","26","V/S","Stable","Incongruent","Triangle","Triangle","Left","Left","Correct","-1","-4","0","479","1539","0"
"6.6.3","win","2025-01-08","09:23:31","66c9db338e03f4445caca660","80_20_tri","26","reward_feedback","0","0","1","1","107","107","27","V/S","Stable","Congruent","Triangle","Triangle","Right","Right","Correct","1","-3","0","478","1692","0"
"6.6.3","win","2025-01-08","09:23:31","66c9db338e03f4445caca660","80_20_tri","26","reward_feedback","0","0","1","1","108","108","28","V/S","Stable","Congruent","Triangle","Triangle","Left","Left","Correct","1","-2","0","1175","1033","0"
"6.6.3","win","2025-01-08","09:23:31","66c9db338e03f4445caca660","80_20_tri","26","reward_feedback","0","0","1","1","109","109","29","V/S","Stable","Congruent","Triangle","Triangle","Left","Left","Correct","1","-1","0","454","1904","0"
"6.6.3","win","2025-01-08","09:23:31","66c9db338e03f4445caca660","80_20_tri","26","reward_feedback","0","0","1","1","110","110","30","V/S","Stable","Congruent","Triangle","Triangle","Left","Left","Correct","1","0","0","465","1818","0"
"6.6.3","win","2025-01-08","09:23:31","66c9db338e03f4445caca660","80_20_tri","27","reward_feedback","0","0","1","1","111","111","31","V/S","Stable","Congruent","Triangle","Triangle","Right","Right","Correct","1","1","0","613","1177","0"
"6.6.3","win","2025-01-08","09:23:31","66c9db338e03f4445caca660","80_20_tri","27","reward_feedback","0","0","1","1","112","112","32","V/S","Stable","Congruent","Triangle","Triangle","Left","Left","Correct","1","2","0","416","1780","0"
"6.6.3","win","2025-01-08","09:23:31","66c9db338e03f4445caca660","80_20_tri","27","reward_feedback","0","0","1","1","113","113","33","V/S","Stable","Congruent","Triangle","Triangle","Left","Left","Correct","1","3","0","450","1151","0"
"6.6.3","win","2025-01-08","09:23:31","66c9db338e03f4445caca660","80_20_tri","27","reward_feedback","0","0","1","1","114","114","34","V/S","Stable","Congruent","Triangle","Triangle","Right","Right","Correct","1","4","0","344","1472","0"
"6.6.3","win","2025-01-08","09:23:31","66c9db338e03f4445caca660","80_20_tri","27","punish_feedback","0","0","1","1","115","115","35","V/S","Stable","Incongruent","Triangle","Triangle","Left","Left","Correct","-1","3","0","339","1604","0"
"6.6.3","win","2025-01-08","09:23:31","66c9db338e03f4445caca660","80_20_tri","28","reward_feedback","0","0","1","1","116","116","36","V/S","Stable","Congruent","Triangle","Triangle","Left","Left","Correct","1","4","0","500","1118","0"
"6.6.3","win","2025-01-08","09:23:31","66c9db338e03f4445caca660","80_20_tri","28","reward_feedback","0","0","1","1","117","117","37","V/S","Stable","Congruent","Triangle","Triangle","Right","Right","Correct","1","5","0","473","1950","0"
"6.6.3","win","2025-01-08","09:23:31","66c9db338e03f4445caca660","80_20_tri","28","reward_feedback","0","0","1","1","118","118","38","V/S","Stable","Congruent","Triangle","Triangle","Left","Left","Correct","1","6","0","774","1147","0"
"6.6.3","win","2025-01-08","09:23:31","66c9db338e03f4445caca660","80_20_tri","28","reward_feedback","0","0","1","1","119","119","39","V/S","Stable","Congruent","Triangle","Triangle","Right","Right","Correct","1","7","0","623","1252","0"
"6.6.3","win","2025-01-08","09:23:31","66c9db338e03f4445caca660","80_20_tri","28","punish_feedback","0","0","1","1","120","120","40","V/S","Stable","Incongruent","Triangle","Triangle","Right","Right","Correct","-1","6","0","463","1313","0"
"6.6.3","win","2025-01-08","09:23:31","66c9db338e03f4445caca660","80_20_tri","29","punish_feedback","0","0","1","1","121","121","41","V/S","Stable","Incongruent","Triangle","Triangle","Left","Left","Correct","-1","5","0","441","1947","0"
"6.6.3","win","2025-01-08","09:23:31","66c9db338e03f4445caca660","80_20_tri","29","reward_feedback","0","0","1","1","122","122","42","V/S","Stable","Congruent","Triangle","Triangle","Right","Right","Correct","1","6","0","464","1917","0"
"6.6.3","win","2025-01-08","09:23:31","66c9db338e03f4445caca660","80_20_tri","29","reward_feedback","0","0","1","1","123","123","43","V/S","Stable","Congruent","Triangle","Triangle","Left","Left","Correct","1","7","0","626","1686","0"
"6.6.3","win","2025-01-08","09:23:31","66c9db338e03f4445caca660","80_20_tri","29","reward_feedback","0","0","1","1","124","124","44","V/S","Stable","Congruent","Triangle","Triangle","Left","Left","Correct","1","8","0","506","1909","0"
"6.6.3","win","2025-01-08","09:23:31","66c9db338e03f4445caca660","80_20_tri","29","reward_feedback","0","0","1","1","125","125","45","V/S","Stable","Congruent","Triangle","Triangle","Right","Right","Correct","1","9","0","481","1748","0"
"6.6.3","win","2025-01-08","09:23:31","66c9db338e03f4445caca660","80_20_tri","30","reward_feedback","0","0","1","1","126","126","46","V/S","Stable","Congruent","Triangle","Triangle","Right","Right","Correct","1","10","0","479","1744","0"
"6.6.3","win","2025-01-08","09:23:31","66c9db338e03f4445caca660","80_20_tri","30","punish_feedback","0","0","1","1","127","127","47","V/S","Stable","Incongruent","Triangle","Triangle","Right","Right","Correct","-1","9","0","414","1811","0"
"6.6.3","win","2025-01-08","09:23:31","66c9db338e03f4445caca660","80_20_tri","30","reward_feedback","0","0","1","1","128","128","48","V/S","Stable","Congruent","Triangle","Triangle","Right","Right","Correct","1","10","0","504","1142","0"
"6.6.3","win","2025-01-08","09:23:31","66c9db338e03f4445caca660","80_20_tri","30","reward_feedback","0","0","1","1","129","129","49","V/S","Stable","Congruent","Triangle","Triangle","Right","Right","Correct","1","11","0","346","1049","0"
"6.6.3","win","2025-01-08","09:23:31","66c9db338e03f4445caca660","80_20_tri","30","reward_feedback","0","0","1","1","130","130","50","V/S","Stable","Congruent","Triangle","Triangle","Left","Left","Correct","1","12","0","507","1831","0"
"6.6.3","win","2025-01-08","09:23:31","66c9db338e03f4445caca660","80_20_tri","31","reward_feedback","0","0","1","1","131","131","51","V/S","Stable","Congruent","Triangle","Triangle","Right","Right","Correct","1","13","0","433","1222","0"
"6.6.3","win","2025-01-08","09:23:31","66c9db338e03f4445caca660","80_20_tri","31","reward_feedback","0","0","1","1","132","132","52","V/S","Stable","Congruent","Triangle","Triangle","Left","Left","Correct","1","14","0","529","1069","0"
"6.6.3","win","2025-01-08","09:23:31","66c9db338e03f4445caca660","80_20_tri","31","reward_feedback","0","0","1","1","133","133","53","V/S","Stable","Congruent","Triangle","Triangle","Right","Right","Correct","1","15","0","445","1584","0"
"6.6.3","win","2025-01-08","09:23:31","66c9db338e03f4445caca660","80_20_tri","31","reward_feedback","0","0","1","1","134","134","54","V/S","Stable","Congruent","Triangle","Triangle","Right","Right","Correct","1","16","0","446","1620","0"
"6.6.3","win","2025-01-08","09:23:31","66c9db338e03f4445caca660","80_20_tri","31","punish_feedback","0","0","1","1","135","135","55","V/S","Stable","Incongruent","Triangle","Triangle","Left","Left","Correct","-1","15","0","329","1997","0"
"6.6.3","win","2025-01-08","09:23:31","66c9db338e03f4445caca660","80_20_tri","32","reward_feedback","0","0","1","1","136","136","56","V/S","Stable","Congruent","Triangle","Triangle","Right","Right","Correct","1","16","0","415","1001","0"
"6.6.3","win","2025-01-08","09:23:31","66c9db338e03f4445caca660","80_20_tri","32","reward_feedback","0","0","1","1","137","137","57","V/S","Stable","Congruent","Triangle","Triangle","Right","Right","Correct","1","17","0","369","1176","0"
"6.6.3","win","2025-01-08","09:23:31","66c9db338e03f4445caca660","80_20_tri","32","reward_feedback","0","0","1","1","138","138","58","V/S","Stable","Congruent","Triangle","Triangle","Right","Right","Correct","1","18","0","467","1258","0"
"6.6.3","win","2025-01-08","09:23:31","66c9db338e03f4445caca660","80_20_tri","32","reward_feedback","0","0","1","1","139","139","59","V/S","Stable","Congruent","Triangle","Triangle","Left","Left","Correct","1","19","0","1134","1927","0"
"6.6.3","win","2025-01-08","09:23:31","66c9db338e03f4445caca660","80_20_tri","32","punish_feedback","0","0","1","1","140","140","60","V/S","Stable","Incongruent","Triangle","Triangle","Right","Right","Correct","-1","18","0","491","1419","0"
"6.6.3","win","2025-01-08","09:23:31","66c9db338e03f4445caca660","80_20_tri","33","reward_feedback","0","0","1","1","141","141","61","V/S","Stable","Congruent","Triangle","Triangle","Left","Left","Correct","1","19","0","436","1479","0"
"6.6.3","win","2025-01-08","09:23:31","66c9db338e03f4445caca660","80_20_tri","33","reward_feedback","0","0","1","1","142","142","62","V/S","Stable","Congruent","Triangle","Triangle","Left","Left","Correct","1","20","0","941","1095","0"
"6.6.3","win","2025-01-08","09:23:31","66c9db338e03f4445caca660","80_20_tri","33","punish_feedback","0","0","1","1","143","143","63","V/S","Stable","Incongruent","Triangle","Triangle","Right","Right","Correct","-1","19","0","481","1461","0"
"6.6.3","win","2025-01-08","09:23:31","66c9db338e03f4445caca660","80_20_tri","33","reward_feedback","0","0","1","1","144","144","64","V/S","Stable","Congruent","Triangle","Triangle","Right","Right","Correct","1","20","0","587","1345","0"
"6.6.3","win","2025-01-08","09:23:31","66c9db338e03f4445caca660","80_20_tri","33","reward_feedback","0","0","1","1","145","145","65","V/S","Stable","Congruent","Triangle","Triangle","Left","Left","Correct","1","21","0","415","1119","0"
"6.6.3","win","2025-01-08","09:23:31","66c9db338e03f4445caca660","80_20_tri","34","reward_feedback","0","0","1","1","146","146","66","V/S","Stable","Congruent","Triangle","Triangle","Left","Left","Correct","1","22","0","455","1574","0"
"6.6.3","win","2025-01-08","09:23:31","66c9db338e03f4445caca660","80_20_tri","34","reward_feedback","0","0","1","1","147","147","67","V/S","Stable","Congruent","Triangle","Triangle","Left","Left","Correct","1","23","0","553","1302","0"
"6.6.3","win","2025-01-08","09:23:31","66c9db338e03f4445caca660","80_20_tri","34","reward_feedback","0","0","1","1","148","148","68","V/S","Stable","Congruent","Triangle","Triangle","Right","Right","Correct","1","24","0","459","1782","0"
"6.6.3","win","2025-01-08","09:23:31","66c9db338e03f4445caca660","80_20_tri","34","reward_feedback","0","0","1","1","149","149","69","V/S","Stable","Congruent","Triangle","Triangle","Right","Right","Correct","1","25","0","451","1647","0"
"6.6.3","win","2025-01-08","09:23:31","66c9db338e03f4445caca660","80_20_tri","34","punish_feedback","0","0","1","1","150","150","70","V/S","Stable","Incongruent","Triangle","Triangle","Left","Left","Correct","-1","24","0","472","1452","0"
"6.6.3","win","2025-01-08","09:23:31","66c9db338e03f4445caca660","80_20_tri","35","reward_feedback","0","0","1","1","151","151","71","V/S","Stable","Congruent","Triangle","Triangle","Right","Right","Correct","1","25","0","414","1327","0"
"6.6.3","win","2025-01-08","09:23:31","66c9db338e03f4445caca660","80_20_tri","35","reward_feedback","0","0","1","1","152","152","72","V/S","Stable","Congruent","Triangle","Triangle","Right","Right","Correct","1","26","0","499","1533","0"
"6.6.3","win","2025-01-08","09:23:31","66c9db338e03f4445caca660","80_20_tri","35","punish_feedback","0","0","1","1","153","153","73","V/S","Stable","Incongruent","Triangle","Triangle","Right","Right","Correct","-1","25","0","499","1975","0"
"6.6.3","win","2025-01-08","09:23:31","66c9db338e03f4445caca660","80_20_tri","35","reward_feedback","0","0","1","1","154","154","74","V/S","Stable","Congruent","Triangle","Triangle","Left","Left","Correct","1","26","0","519","1901","0"
"6.6.3","win","2025-01-08","09:23:31","66c9db338e03f4445caca660","80_20_tri","35","reward_feedback","0","0","1","1","155","155","75","V/S","Stable","Congruent","Triangle","Triangle","Left","Left","Correct","1","27","0","520","1885","0"
