"build","computer.platform","date","time","subject","blockcode","blocknum","trialcode","response","correct","consent","ProlificID","trialnum","trialcount","blockCount","blockorder","blockLabel","trialType","ruleStart","correctChoice","correctChoicePosition","responseSide","correctResponse","feedback","totalPoints","phaseCount","RTs","fixjit","submission"
"6.6.3","win","2025-01-07","11:48:57","6731cef4aea51c98d72aa3c7","Consent","1","Consenttitle","","1","0","0","0","0","0","V/S","Volatile","","Triangle","0","","","","0","0","0","0","0","0"
"6.6.3","win","2025-01-07","11:48:57","6731cef4aea51c98d72aa3c7","Consent","1","consent_1option1","Agree","1","0","0","0","0","0","V/S","Volatile","","Triangle","0","","","","0","0","0","0","0","0"
"6.6.3","win","2025-01-07","11:48:57","6731cef4aea51c98d72aa3c7","Consent","1","consent_2option1","Agree","1","0","0","0","0","0","V/S","Volatile","","Triangle","0","","","","0","0","0","0","0","0"
"6.6.3","win","2025-01-07","11:48:57","6731cef4aea51c98d72aa3c7","Consent","1","consent_3option1","Agree","1","0","0","0","0","0","V/S","Volatile","","Triangle","0","","","","0","0","0","0","0","0"
"6.6.3","win","2025-01-07","11:48:57","6731cef4aea51c98d72aa3c7","Consent","1","consent_4option1","Agree","1","0","0","0","0","0","V/S","Volatile","","Triangle","0","","","","0","0","0","0","0","0"
"6.6.3","win","2025-01-07","11:48:57","6731cef4aea51c98d72aa3c7","Consent","1","consent_5option1","Agree","1","0","0","0","0","0","V/S","Volatile","","Triangle","0","","","","0","0","0","0","0","0"
"6.6.3","win","2025-01-07","11:48:57","6731cef4aea51c98d72aa3c7","Consent","1","consent_6option1","Agree","1","0","0","0","0","0","V/S","Volatile","","Triangle","0","","","","0","0","0","0","0","0"
"6.6.3","win","2025-01-07","11:48:57","6731cef4aea51c98d72aa3c7","Consent","1","consent_7option1","Agree","1","0","0","0","0","0","V/S","Volatile","","Triangle","0","","","","0","0","0","0","0","0"
"6.6.3","win","2025-01-07","11:48:57","6731cef4aea51c98d72aa3c7","Consent","1","consent_8option1","Agree","1","0","0","0","0","0","V/S","Volatile","","Triangle","0","","","","0","0","0","0","0","0"
"6.6.3","win","2025-01-07","11:48:57","6731cef4aea51c98d72aa3c7","Consent","1","consent_9option1","Agree","1","0","0","0","0","0","V/S","Volatile","","Triangle","0","","","","0","0","0","0","0","0"
"6.6.3","win","2025-01-07","11:48:57","6731cef4aea51c98d72aa3c7","Consent","1","consent_10option1","Agree","1","0","0","0","0","0","V/S","Volatile","","Triangle","0","","","","0","0","0","0","0","0"
"6.6.3","win","2025-01-07","11:48:57","6731cef4aea51c98d72aa3c7","Consent","1","consent_11option1","Agree","1","0","0","0","0","0","V/S","Volatile","","Triangle","0","","","","0","0","0","0","0","0"
"6.6.3","win","2025-01-07","11:48:57","6731cef4aea51c98d72aa3c7","Consent","1","consent_12option1","Agree","1","0","0","0","0","0","V/S","Volatile","","Triangle","0","","","","0","0","0","0","0","0"
"6.6.3","win","2025-01-07","09:43:06","6659fa442c09453f80c77223","Consent","1","Consenttitle","","1","0","0","0","0","0","V/S","Volatile","","Triangle","0","","","","0","0","0","0","0","0"
"6.6.3","win","2025-01-07","09:43:06","6659fa442c09453f80c77223","Consent","1","consent_1option1","Agree","1","0","0","0","0","0","V/S","Volatile","","Triangle","0","","","","0","0","0","0","0","0"
"6.6.3","win","2025-01-07","09:43:06","6659fa442c09453f80c77223","Consent","1","consent_2option1","Agree","1","0","0","0","0","0","V/S","Volatile","","Triangle","0","","","","0","0","0","0","0","0"
"6.6.3","win","2025-01-07","09:43:06","6659fa442c09453f80c77223","Consent","1","consent_3option1","Agree","1","0","0","0","0","0","V/S","Volatile","","Triangle","0","","","","0","0","0","0","0","0"
"6.6.3","win","2025-01-07","09:43:06","6659fa442c09453f80c77223","Consent","1","consent_4option1","Agree","1","0","0","0","0","0","V/S","Volatile","","Triangle","0","","","","0","0","0","0","0","0"
"6.6.3","win","2025-01-07","09:43:06","6659fa442c09453f80c77223","Consent","1","consent_5option1","Agree","1","0","0","0","0","0","V/S","Volatile","","Triangle","0","","","","0","0","0","0","0","0"
"6.6.3","win","2025-01-07","09:43:06","6659fa442c09453f80c77223","Consent","1","consent_6option1","Agree","1","0","0","0","0","0","V/S","Volatile","","Triangle","0","","","","0","0","0","0","0","0"
"6.6.3","win","2025-01-07","09:43:06","6659fa442c09453f80c77223","Consent","1","consent_7option1","Agree","1","0","0","0","0","0","V/S","Volatile","","Triangle","0","","","","0","0","0","0","0","0"
"6.6.3","win","2025-01-07","09:43:06","6659fa442c09453f80c77223","Consent","1","consent_8option1","Agree","1","0","0","0","0","0","V/S","Volatile","","Triangle","0","","","","0","0","0","0","0","0"
"6.6.3","win","2025-01-07","09:43:06","6659fa442c09453f80c77223","Consent","1","consent_9option1","Agree","1","0","0","0","0","0","V/S","Volatile","","Triangle","0","","","","0","0","0","0","0","0"
"6.6.3","win","2025-01-07","09:43:06","6659fa442c09453f80c77223","Consent","1","consent_10option1","Agree","1","0","0","0","0","0","V/S","Volatile","","Triangle","0","","","","0","0","0","0","0","0"
"6.6.3","win","2025-01-07","09:43:06","6659fa442c09453f80c77223","Consent","1","consent_11option1","Agree","1","0","0","0","0","0","V/S","Volatile","","Triangle","0","","","","0","0","0","0","0","0"
"6.6.3","win","2025-01-07","09:43:06","6659fa442c09453f80c77223","Consent","1","consent_12option1","Agree","1","0","0","0","0","0","V/S","Volatile","","Triangle","0","","","","0","0","0","0","0","0"
"6.6.3","win","2025-01-07","09:43:06","6659fa442c09453f80c77223","80_20_tri","4","punish_feedback","0","0","1","1","1","1","1","V/S","Volatile","Congruent","Triangle","Triangle","Right","Left","Incorrect","-1","-1","1","1120","1959","0"
"6.6.3","win","2025-01-07","09:43:06","6659fa442c09453f80c77223","80_20_tri","4","reward_feedback","0","0","1","1","2","2","2","V/S","Volatile","Congruent","Triangle","Triangle","Left","Left","Correct","1","0","2","491","1610","0"
"6.6.3","win","2025-01-07","09:43:06","6659fa442c09453f80c77223","80_20_tri","4","punish_feedback","0","0","1","1","3","3","3","V/S","Volatile","Incongruent","Triangle","Triangle","Left","Left","Correct","-1","-1","3","421","1870","0"
"6.6.3","win","2025-01-07","09:43:06","6659fa442c09453f80c77223","80_20_tri","4","reward_feedback","0","0","1","1","4","4","4","V/S","Volatile","Congruent","Triangle","Triangle","Left","Left","Correct","1","0","4","989","1467","0"
"6.6.3","win","2025-01-07","09:43:06","6659fa442c09453f80c77223","80_20_tri","4","punish_feedback","0","0","1","1","5","5","5","V/S","Volatile","Congruent","Triangle","Triangle","Right","Left","Incorrect","-1","-1","5","417","1731","0"
"6.6.3","win","2025-01-07","09:43:06","6659fa442c09453f80c77223","80_20_tri","5","punish_feedback","0","0","1","1","6","6","6","V/S","Volatile","Congruent","Triangle","Triangle","Left","Right","Incorrect","-1","-2","6","410","1618","0"
"6.6.3","win","2025-01-07","09:43:06","6659fa442c09453f80c77223","80_20_tri","5","reward_feedback","0","0","1","1","7","7","7","V/S","Volatile","Congruent","Triangle","Triangle","Left","Left","Correct","1","-1","7","511","1629","0"
"6.6.3","win","2025-01-07","09:43:06","6659fa442c09453f80c77223","80_20_tri","5","reward_feedback","0","0","1","1","8","8","8","V/S","Volatile","Congruent","Triangle","Triangle","Right","Right","Correct","1","0","8","389","1747","0"
"6.6.3","win","2025-01-07","09:43:06","6659fa442c09453f80c77223","80_20_tri","5","punish_feedback","0","0","1","1","9","9","9","V/S","Volatile","Incongruent","Triangle","Triangle","Right","Right","Correct","-1","-1","9","427","1661","0"
"6.6.3","win","2025-01-07","09:43:06","6659fa442c09453f80c77223","80_20_tri","5","reward_feedback","0","0","1","1","10","10","10","V/S","Volatile","Congruent","Triangle","Triangle","Left","Left","Correct","1","0","10","469","1084","0"
"6.6.3","win","2025-01-07","09:43:06","6659fa442c09453f80c77223","80_20_tri","6","reward_feedback","0","0","1","1","11","11","11","V/S","Volatile","Congruent","Triangle","Triangle","Left","Left","Correct","1","1","11","493","1077","0"
"6.6.3","win","2025-01-07","09:43:06","6659fa442c09453f80c77223","80_20_tri","6","punish_feedback","0","0","1","1","12","12","12","V/S","Volatile","Incongruent","Triangle","Triangle","Left","Left","Correct","-1","0","12","405","1430","0"
"6.6.3","win","2025-01-07","09:43:06","6659fa442c09453f80c77223","80_20_tri","6","reward_feedback","0","0","1","1","13","13","13","V/S","Volatile","Congruent","Triangle","Triangle","Left","Left","Correct","1","1","13","352","1210","0"
"6.6.3","win","2025-01-07","09:43:06","6659fa442c09453f80c77223","80_20_tri","6","punish_feedback","0","0","1","1","14","14","14","V/S","Volatile","Congruent","Triangle","Triangle","Left","Right","Incorrect","-1","0","14","365","1182","0"
"6.6.3","win","2025-01-07","09:43:06","6659fa442c09453f80c77223","80_20_tri","6","reward_feedback","0","0","1","1","15","15","15","V/S","Volatile","Congruent","Triangle","Triangle","Right","Right","Correct","1","1","15","571","1587","0"
"6.6.3","win","2025-01-07","09:43:06","6659fa442c09453f80c77223","80_20_tri","7","reward_feedback","0","0","1","1","16","16","16","V/S","Volatile","Congruent","Triangle","Triangle","Right","Right","Correct","1","2","16","503","1061","0"
"6.6.3","win","2025-01-07","09:43:06","6659fa442c09453f80c77223","80_20_tri","7","punish_feedback","0","0","1","1","17","17","17","V/S","Volatile","Incongruent","Triangle","Triangle","Right","Right","Correct","-1","1","17","396","1799","0"
"6.6.3","win","2025-01-07","09:43:06","6659fa442c09453f80c77223","80_20_tri","7","reward_feedback","0","0","1","1","18","18","18","V/S","Volatile","Congruent","Triangle","Triangle","Right","Right","Correct","1","2","18","520","1519","0"
"6.6.3","win","2025-01-07","09:43:06","6659fa442c09453f80c77223","80_20_tri","7","reward_feedback","0","0","1","1","19","19","19","V/S","Volatile","Congruent","Triangle","Triangle","Right","Right","Correct","1","3","19","603","1697","0"
"6.6.3","win","2025-01-07","09:43:06","6659fa442c09453f80c77223","80_20_tri","7","reward_feedback","0","0","1","1","20","20","20","V/S","Volatile","Congruent","Triangle","Triangle","Left","Left","Correct","1","4","20","516","1663","0"
"6.6.3","win","2025-01-07","09:43:06","6659fa442c09453f80c77223","80_20_cir","8","punish_feedback","0","0","1","1","21","21","21","V/S","Volatile","Congruent","Triangle","Circle","Left","Right","Incorrect","-1","3","1","515","1087","0"
"6.6.3","win","2025-01-07","09:43:06","6659fa442c09453f80c77223","80_20_cir","8","punish_feedback","0","0","1","1","22","22","22","V/S","Volatile","Congruent","Triangle","Circle","Left","Right","Incorrect","-1","2","2","522","1840","0"
"6.6.3","win","2025-01-07","09:43:06","6659fa442c09453f80c77223","80_20_cir","8","punish_feedback","0","0","1","1","23","23","23","V/S","Volatile","Congruent","Triangle","Circle","Left","Right","Incorrect","-1","1","3","428","1796","0"
"6.6.3","win","2025-01-07","09:43:06","6659fa442c09453f80c77223","80_20_cir","8","punish_feedback","0","0","1","1","24","24","24","V/S","Volatile","Incongruent","Triangle","Circle","Right","Right","Correct","-1","0","4","376","1765","0"
"6.6.3","win","2025-01-07","09:43:06","6659fa442c09453f80c77223","80_20_cir","8","punish_feedback","0","0","1","1","25","25","25","V/S","Volatile","Congruent","Triangle","Circle","Left","Right","Incorrect","-1","-1","5","960","1398","0"
"6.6.3","win","2025-01-07","09:43:06","6659fa442c09453f80c77223","80_20_cir","9","punish_feedback","0","0","1","1","26","26","26","V/S","Volatile","Incongruent","Triangle","Circle","Right","Right","Correct","-1","-2","6","506","1694","0"
"6.6.3","win","2025-01-07","09:43:06","6659fa442c09453f80c77223","80_20_cir","9","punish_feedback","0","0","1","1","27","27","27","V/S","Volatile","Congruent","Triangle","Circle","Left","Right","Incorrect","-1","-3","7","392","1928","0"
"6.6.3","win","2025-01-07","09:43:06","6659fa442c09453f80c77223","80_20_cir","9","punish_feedback","0","0","1","1","28","28","28","V/S","Volatile","Congruent","Triangle","Circle","Right","Left","Incorrect","-1","-4","8","294","1060","0"
"6.6.3","win","2025-01-07","09:43:06","6659fa442c09453f80c77223","80_20_cir","9","punish_feedback","0","0","1","1","29","29","29","V/S","Volatile","Congruent","Triangle","Circle","Right","Left","Incorrect","-1","-5","9","456","1324","0"
"6.6.3","win","2025-01-07","09:43:06","6659fa442c09453f80c77223","80_20_cir","9","punish_feedback","0","0","1","1","30","30","30","V/S","Volatile","Congruent","Triangle","Circle","Left","Right","Incorrect","-1","-6","10","236","1586","0"
"6.6.3","win","2025-01-07","09:43:06","6659fa442c09453f80c77223","80_20_cir","10","punish_feedback","0","0","1","1","31","31","31","V/S","Volatile","Incongruent","Triangle","Circle","Left","Left","Correct","-1","-7","11","323","1499","0"
"6.6.3","win","2025-01-07","09:43:06","6659fa442c09453f80c77223","80_20_cir","10","reward_feedback","0","0","1","1","32","32","32","V/S","Volatile","Congruent","Triangle","Circle","Left","Left","Correct","1","-6","12","383","1658","0"
"6.6.3","win","2025-01-07","09:43:06","6659fa442c09453f80c77223","80_20_cir","10","reward_feedback","0","0","1","1","33","33","33","V/S","Volatile","Congruent","Triangle","Circle","Right","Right","Correct","1","-5","13","375","1252","0"
"6.6.3","win","2025-01-07","09:43:06","6659fa442c09453f80c77223","80_20_cir","10","reward_feedback","0","0","1","1","34","34","34","V/S","Volatile","Congruent","Triangle","Circle","Right","Right","Correct","1","-4","14","410","1668","0"
"6.6.3","win","2025-01-07","09:43:06","6659fa442c09453f80c77223","80_20_cir","10","reward_feedback","0","0","1","1","35","35","35","V/S","Volatile","Congruent","Triangle","Circle","Right","Right","Correct","1","-3","15","518","1267","0"
"6.6.3","win","2025-01-07","09:43:06","6659fa442c09453f80c77223","80_20_cir","11","punish_feedback","0","0","1","1","36","36","36","V/S","Volatile","Incongruent","Triangle","Circle","Left","Left","Correct","-1","-4","16","415","1461","0"
"6.6.3","win","2025-01-07","09:43:06","6659fa442c09453f80c77223","80_20_cir","11","punish_feedback","0","0","1","1","37","37","37","V/S","Volatile","Congruent","Triangle","Circle","Right","Left","Incorrect","-1","-5","17","438","1566","0"
"6.6.3","win","2025-01-07","09:43:06","6659fa442c09453f80c77223","80_20_cir","11","reward_feedback","0","0","1","1","38","38","38","V/S","Volatile","Congruent","Triangle","Circle","Right","Right","Correct","1","-4","18","468","1240","0"
"6.6.3","win","2025-01-07","09:43:06","6659fa442c09453f80c77223","80_20_cir","11","reward_feedback","0","0","1","1","39","39","39","V/S","Volatile","Congruent","Triangle","Circle","Right","Right","Correct","1","-3","19","388","1554","0"
"6.6.3","win","2025-01-07","09:43:06","6659fa442c09453f80c77223","80_20_cir","11","reward_feedback","0","0","1","1","40","40","40","V/S","Volatile","Congruent","Triangle","Circle","Right","Right","Correct","1","-2","20","370","1667","0"
"6.6.3","win","2025-01-07","09:43:06","6659fa442c09453f80c77223","80_20_tri","12","punish_feedback","0","0","1","1","41","41","41","V/S","Volatile","Congruent","Triangle","Triangle","Left","Right","Incorrect","-1","-3","1","399","1060","0"
"6.6.3","win","2025-01-07","09:43:06","6659fa442c09453f80c77223","80_20_tri","12","reward_feedback","0","0","1","1","42","42","42","V/S","Volatile","Congruent","Triangle","Triangle","Left","Left","Correct","1","-2","2","367","1561","0"
"6.6.3","win","2025-01-07","09:43:06","6659fa442c09453f80c77223","80_20_tri","12","reward_feedback","0","0","1","1","43","43","43","V/S","Volatile","Congruent","Triangle","Triangle","Right","Right","Correct","1","-1","3","415","1498","0"
"6.6.3","win","2025-01-07","09:43:06","6659fa442c09453f80c77223","80_20_tri","12","reward_feedback","0","0","1","1","44","44","44","V/S","Volatile","Congruent","Triangle","Triangle","Right","Right","Correct","1","0","4","422","1900","0"
"6.6.3","win","2025-01-07","09:43:06","6659fa442c09453f80c77223","80_20_tri","12","punish_feedback","0","0","1","1","45","45","45","V/S","Volatile","Incongruent","Triangle","Triangle","Right","Right","Correct","-1","-1","5","367","1269","0"
"6.6.3","win","2025-01-07","09:43:06","6659fa442c09453f80c77223","80_20_tri","13","punish_feedback","0","0","1","1","46","46","46","V/S","Volatile","Congruent","Triangle","Triangle","Right","Left","Incorrect","-1","-2","6","368","1920","0"
"6.6.3","win","2025-01-07","09:43:06","6659fa442c09453f80c77223","80_20_tri","13","reward_feedback","0","0","1","1","47","47","47","V/S","Volatile","Incongruent","Triangle","Triangle","Left","Right","Incorrect","1","-1","7","362","1944","0"
"6.6.3","win","2025-01-07","09:43:06","6659fa442c09453f80c77223","80_20_tri","13","punish_feedback","0","0","1","1","48","48","48","V/S","Volatile","Congruent","Triangle","Triangle","Right","Left","Incorrect","-1","-2","8","386","1220","0"
"6.6.3","win","2025-01-07","09:43:06","6659fa442c09453f80c77223","80_20_tri","13","reward_feedback","0","0","1","1","49","49","49","V/S","Volatile","Congruent","Triangle","Triangle","Left","Left","Correct","1","-1","9","489","1758","0"
"6.6.3","win","2025-01-07","09:43:06","6659fa442c09453f80c77223","80_20_tri","13","reward_feedback","0","0","1","1","50","50","50","V/S","Volatile","Congruent","Triangle","Triangle","Left","Left","Correct","1","0","10","1030","1242","0"
"6.6.3","win","2025-01-07","09:43:06","6659fa442c09453f80c77223","80_20_tri","14","reward_feedback","0","0","1","1","51","51","51","V/S","Volatile","Congruent","Triangle","Triangle","Left","Left","Correct","1","1","11","478","1119","0"
"6.6.3","win","2025-01-07","09:43:06","6659fa442c09453f80c77223","80_20_tri","14","reward_feedback","0","0","1","1","52","52","52","V/S","Volatile","Congruent","Triangle","Triangle","Left","Left","Correct","1","2","12","556","1959","0"
"6.6.3","win","2025-01-07","09:43:06","6659fa442c09453f80c77223","80_20_tri","14","reward_feedback","0","0","1","1","53","53","53","V/S","Volatile","Congruent","Triangle","Triangle","Left","Left","Correct","1","3","13","510","1431","0"
"6.6.3","win","2025-01-07","09:43:06","6659fa442c09453f80c77223","80_20_tri","14","punish_feedback","0","0","1","1","54","54","54","V/S","Volatile","Incongruent","Triangle","Triangle","Right","Right","Correct","-1","2","14","421","1110","0"
"6.6.3","win","2025-01-07","09:43:06","6659fa442c09453f80c77223","80_20_tri","14","punish_feedback","0","0","1","1","55","55","55","V/S","Volatile","Congruent","Triangle","Triangle","Right","Left","Incorrect","-1","1","15","395","1351","0"
"6.6.3","win","2025-01-07","09:43:06","6659fa442c09453f80c77223","80_20_tri","15","reward_feedback","0","0","1","1","56","56","56","V/S","Volatile","Congruent","Triangle","Triangle","Right","Right","Correct","1","2","16","364","1819","0"
"6.6.3","win","2025-01-07","09:43:06","6659fa442c09453f80c77223","80_20_tri","15","reward_feedback","0","0","1","1","57","57","57","V/S","Volatile","Congruent","Triangle","Triangle","Right","Right","Correct","1","3","17","429","1609","0"
"6.6.3","win","2025-01-07","09:43:06","6659fa442c09453f80c77223","80_20_tri","15","reward_feedback","0","0","1","1","58","58","58","V/S","Volatile","Congruent","Triangle","Triangle","Left","Left","Correct","1","4","18","411","1344","0"
"6.6.3","win","2025-01-07","09:43:06","6659fa442c09453f80c77223","80_20_tri","15","punish_feedback","0","0","1","1","59","59","59","V/S","Volatile","Incongruent","Triangle","Triangle","Left","Left","Correct","-1","3","19","434","1888","0"
"6.6.3","win","2025-01-07","09:43:06","6659fa442c09453f80c77223","80_20_tri","15","punish_feedback","0","0","1","1","60","60","60","V/S","Volatile","Congruent","Triangle","Triangle","Right","Left","Incorrect","-1","2","20","494","1421","0"
"6.6.3","win","2025-01-07","09:43:06","6659fa442c09453f80c77223","80_20_cir","16","punish_feedback","0","0","1","1","61","61","61","V/S","Volatile","Congruent","Triangle","Circle","Right","Left","Incorrect","-1","1","1","603","1168","0"
"6.6.3","win","2025-01-07","09:43:06","6659fa442c09453f80c77223","80_20_cir","16","punish_feedback","0","0","1","1","62","62","62","V/S","Volatile","Congruent","Triangle","Circle","Right","Left","Incorrect","-1","0","2","510","1897","0"
"6.6.3","win","2025-01-07","09:43:06","6659fa442c09453f80c77223","80_20_cir","16","reward_feedback","0","0","1","1","63","63","63","V/S","Volatile","Congruent","Triangle","Circle","Right","Right","Correct","1","1","3","455","1605","0"
"6.6.3","win","2025-01-07","09:43:06","6659fa442c09453f80c77223","80_20_cir","16","reward_feedback","0","0","1","1","64","64","64","V/S","Volatile","Congruent","Triangle","Circle","Right","Right","Correct","1","2","4","457","1720","0"
"6.6.3","win","2025-01-07","09:43:06","6659fa442c09453f80c77223","80_20_cir","16","punish_feedback","0","0","1","1","65","65","65","V/S","Volatile","Incongruent","Triangle","Circle","Right","Right","Correct","-1","1","5","713","1991","0"
"6.6.3","win","2025-01-07","09:43:06","6659fa442c09453f80c77223","80_20_cir","17","punish_feedback","0","0","1","1","66","66","66","V/S","Volatile","Congruent","Triangle","Circle","Left","Right","Incorrect","-1","0","6","486","1775","0"
"6.6.3","win","2025-01-07","09:43:06","6659fa442c09453f80c77223","80_20_cir","17","reward_feedback","0","0","1","1","67","67","67","V/S","Volatile","Congruent","Triangle","Circle","Left","Left","Correct","1","1","7","655","1390","0"
"6.6.3","win","2025-01-07","09:43:06","6659fa442c09453f80c77223","80_20_cir","17","reward_feedback","0","0","1","1","68","68","68","V/S","Volatile","Congruent","Triangle","Circle","Right","Right","Correct","1","2","8","497","1012","0"
"6.6.3","win","2025-01-07","09:43:06","6659fa442c09453f80c77223","80_20_cir","17","punish_feedback","0","0","1","1","69","69","69","V/S","Volatile","Incongruent","Triangle","Circle","Left","Left","Correct","-1","1","9","427","1670","0"
"6.6.3","win","2025-01-07","09:43:06","6659fa442c09453f80c77223","80_20_cir","17","reward_feedback","0","0","1","1","70","70","70","V/S","Volatile","Congruent","Triangle","Circle","Right","Right","Correct","1","2","10","1276","1545","0"
"6.6.3","win","2025-01-07","09:43:06","6659fa442c09453f80c77223","80_20_cir","18","reward_feedback","0","0","1","1","71","71","71","V/S","Volatile","Congruent","Triangle","Circle","Right","Right","Correct","1","3","11","489","1185","0"
"6.6.3","win","2025-01-07","09:43:06","6659fa442c09453f80c77223","80_20_cir","18","reward_feedback","0","0","1","1","72","72","72","V/S","Volatile","Congruent","Triangle","Circle","Right","Right","Correct","1","4","12","494","1166","0"
"6.6.3","win","2025-01-07","09:43:06","6659fa442c09453f80c77223","80_20_cir","18","reward_feedback","0","0","1","1","73","73","73","V/S","Volatile","Congruent","Triangle","Circle","Left","Left","Correct","1","5","13","454","1658","0"
"6.6.3","win","2025-01-07","09:43:06","6659fa442c09453f80c77223","80_20_cir","18","punish_feedback","0","0","1","1","74","74","74","V/S","Volatile","Incongruent","Triangle","Circle","Left","Left","Correct","-1","4","14","444","1441","0"
"6.6.3","win","2025-01-07","09:43:06","6659fa442c09453f80c77223","80_20_cir","18","reward_feedback","0","0","1","1","75","75","75","V/S","Volatile","Congruent","Triangle","Circle","Right","Right","Correct","1","5","15","406","1724","0"
"6.6.3","win","2025-01-07","09:43:06","6659fa442c09453f80c77223","80_20_cir","19","reward_feedback","0","0","1","1","76","76","76","V/S","Volatile","Congruent","Triangle","Circle","Left","Left","Correct","1","6","16","471","1689","0"
"6.6.3","win","2025-01-07","09:43:06","6659fa442c09453f80c77223","80_20_cir","19","punish_feedback","0","0","1","1","77","77","77","V/S","Volatile","Incongruent","Triangle","Circle","Left","Left","Correct","-1","5","17","584","1433","0"
"6.6.3","win","2025-01-07","09:43:06","6659fa442c09453f80c77223","80_20_cir","19","punish_feedback","0","0","1","1","78","78","78","V/S","Volatile","Congruent","Triangle","Circle","Left","Right","Incorrect","-1","4","18","429","1812","0"
"6.6.3","win","2025-01-07","09:43:06","6659fa442c09453f80c77223","80_20_cir","19","punish_feedback","0","0","1","1","79","79","79","V/S","Volatile","Congruent","Triangle","Circle","Right","Left","Incorrect","-1","3","19","1193","1454","0"
"6.6.3","win","2025-01-07","09:43:06","6659fa442c09453f80c77223","80_20_cir","19","reward_feedback","0","0","1","1","80","80","80","V/S","Volatile","Congruent","Triangle","Circle","Right","Right","Correct","1","4","20","436","1922","0"
"6.6.3","win","2025-01-07","09:43:06","6659fa442c09453f80c77223","80_20_tri","20","reward_feedback","0","0","1","1","81","81","1","V/S","Stable","Congruent","Triangle","Triangle","Left","Left","Correct","1","5","0","420","1294","0"
"6.6.3","win","2025-01-07","09:43:06","6659fa442c09453f80c77223","80_20_tri","20","punish_feedback","0","0","1","1","82","82","2","V/S","Stable","Congruent","Triangle","Triangle","Left","Right","Incorrect","-1","4","0","383","1147","0"
"6.6.3","win","2025-01-07","09:43:06","6659fa442c09453f80c77223","80_20_tri","20","punish_feedback","0","0","1","1","83","83","3","V/S","Stable","Congruent","Triangle","Triangle","Left","Right","Incorrect","-1","3","0","281","1587","0"
"6.6.3","win","2025-01-07","09:43:06","6659fa442c09453f80c77223","80_20_tri","20","punish_feedback","0","0","1","1","84","84","4","V/S","Stable","Incongruent","Triangle","Triangle","Right","Right","Correct","-1","2","0","572","1353","0"
"6.6.3","win","2025-01-07","09:43:06","6659fa442c09453f80c77223","80_20_tri","20","punish_feedback","0","0","1","1","85","85","5","V/S","Stable","Congruent","Triangle","Triangle","Right","Left","Incorrect","-1","1","0","424","1521","0"
"6.6.3","win","2025-01-07","09:43:06","6659fa442c09453f80c77223","80_20_tri","21","reward_feedback","0","0","1","1","86","86","6","V/S","Stable","Congruent","Triangle","Triangle","Right","Right","Correct","1","2","0","893","1930","0"
"6.6.3","win","2025-01-07","09:43:06","6659fa442c09453f80c77223","80_20_tri","21","reward_feedback","0","0","1","1","87","87","7","V/S","Stable","Congruent","Triangle","Triangle","Right","Right","Correct","1","3","0","424","1720","0"
"6.6.3","win","2025-01-07","09:43:06","6659fa442c09453f80c77223","80_20_tri","21","punish_feedback","0","0","1","1","88","88","8","V/S","Stable","Incongruent","Triangle","Triangle","Right","Right","Correct","-1","2","0","497","1947","0"
"6.6.3","win","2025-01-07","09:43:06","6659fa442c09453f80c77223","80_20_tri","21","reward_feedback","0","0","1","1","89","89","9","V/S","Stable","Congruent","Triangle","Triangle","Left","Left","Correct","1","3","0","427","1301","0"
"6.6.3","win","2025-01-07","09:43:06","6659fa442c09453f80c77223","80_20_tri","21","reward_feedback","0","0","1","1","90","90","10","V/S","Stable","Congruent","Triangle","Triangle","Right","Right","Correct","1","4","0","487","1898","0"
"6.6.3","win","2025-01-07","09:43:06","6659fa442c09453f80c77223","80_20_tri","22","reward_feedback","0","0","1","1","91","91","11","V/S","Stable","Congruent","Triangle","Triangle","Left","Left","Correct","1","5","0","408","1295","0"
"6.6.3","win","2025-01-07","09:43:06","6659fa442c09453f80c77223","80_20_tri","22","reward_feedback","0","0","1","1","92","92","12","V/S","Stable","Congruent","Triangle","Triangle","Left","Left","Correct","1","6","0","665","1248","0"
"6.6.3","win","2025-01-07","09:43:06","6659fa442c09453f80c77223","80_20_tri","22","reward_feedback","0","0","1","1","93","93","13","V/S","Stable","Congruent","Triangle","Triangle","Right","Right","Correct","1","7","0","430","1933","0"
"6.6.3","win","2025-01-07","09:43:06","6659fa442c09453f80c77223","80_20_tri","22","reward_feedback","0","0","1","1","94","94","14","V/S","Stable","Congruent","Triangle","Triangle","Left","Left","Correct","1","8","0","453","1704","0"
"6.6.3","win","2025-01-07","09:43:06","6659fa442c09453f80c77223","80_20_tri","22","punish_feedback","0","0","1","1","95","95","15","V/S","Stable","Incongruent","Triangle","Triangle","Left","Left","Correct","-1","7","0","412","1355","0"
"6.6.3","win","2025-01-07","09:43:06","6659fa442c09453f80c77223","80_20_tri","23","punish_feedback","0","0","1","1","96","96","16","V/S","Stable","Congruent","Triangle","Triangle","Left","Right","Incorrect","-1","6","0","382","1683","0"
"6.6.3","win","2025-01-07","09:43:06","6659fa442c09453f80c77223","80_20_tri","23","punish_feedback","0","0","1","1","97","97","17","V/S","Stable","Congruent","Triangle","Triangle","Right","Left","Incorrect","-1","5","0","353","1355","0"
"6.6.3","win","2025-01-07","09:43:06","6659fa442c09453f80c77223","80_20_tri","23","reward_feedback","0","0","1","1","98","98","18","V/S","Stable","Congruent","Triangle","Triangle","Right","Right","Correct","1","6","0","675","1327","0"
"6.6.3","win","2025-01-07","09:43:06","6659fa442c09453f80c77223","80_20_tri","23","punish_feedback","0","0","1","1","99","99","19","V/S","Stable","Incongruent","Triangle","Triangle","Left","Left","Correct","-1","5","0","400","1340","0"
"6.6.3","win","2025-01-07","09:43:06","6659fa442c09453f80c77223","80_20_tri","23","punish_feedback","0","0","1","1","100","100","20","V/S","Stable","Congruent","Triangle","Triangle","Right","Left","Incorrect","-1","4","0","444","1949","0"
"6.6.3","win","2025-01-07","09:43:06","6659fa442c09453f80c77223","80_20_tri","24","reward_feedback","0","0","1","1","101","101","21","V/S","Stable","Congruent","Triangle","Triangle","Left","Left","Correct","1","5","0","424","1194","0"
"6.6.3","win","2025-01-07","09:43:06","6659fa442c09453f80c77223","80_20_tri","24","reward_feedback","0","0","1","1","102","102","22","V/S","Stable","Congruent","Triangle","Triangle","Left","Left","Correct","1","6","0","472","1765","0"
"6.6.3","win","2025-01-07","09:43:06","6659fa442c09453f80c77223","80_20_tri","24","punish_feedback","0","0","1","1","103","103","23","V/S","Stable","Incongruent","Triangle","Triangle","Left","Left","Correct","-1","5","0","529","1574","0"
"6.6.3","win","2025-01-07","09:43:06","6659fa442c09453f80c77223","80_20_tri","24","punish_feedback","0","0","1","1","104","104","24","V/S","Stable","Congruent","Triangle","Triangle","Right","Left","Incorrect","-1","4","0","1249","1512","0"
"6.6.3","win","2025-01-07","09:43:06","6659fa442c09453f80c77223","80_20_tri","24","reward_feedback","0","0","1","1","105","105","25","V/S","Stable","Congruent","Triangle","Triangle","Right","Right","Correct","1","5","0","401","1244","0"
"6.6.3","win","2025-01-07","09:43:06","6659fa442c09453f80c77223","80_20_tri","25","punish_feedback","0","0","1","1","106","106","26","V/S","Stable","Incongruent","Triangle","Triangle","Right","Right","Correct","-1","4","0","445","1270","0"
"6.6.3","win","2025-01-07","09:43:06","6659fa442c09453f80c77223","80_20_tri","25","punish_feedback","0","0","1","1","107","107","27","V/S","Stable","Congruent","Triangle","Triangle","Right","Left","Incorrect","-1","3","0","452","1825","0"
"6.6.3","win","2025-01-07","09:43:06","6659fa442c09453f80c77223","80_20_tri","25","reward_feedback","0","0","1","1","108","108","28","V/S","Stable","Congruent","Triangle","Triangle","Right","Right","Correct","1","4","0","387","1764","0"
"6.6.3","win","2025-01-07","09:43:06","6659fa442c09453f80c77223","80_20_tri","25","reward_feedback","0","0","1","1","109","109","29","V/S","Stable","Congruent","Triangle","Triangle","Right","Right","Correct","1","5","0","461","1328","0"
"6.6.3","win","2025-01-07","09:43:06","6659fa442c09453f80c77223","80_20_tri","25","reward_feedback","0","0","1","1","110","110","30","V/S","Stable","Congruent","Triangle","Triangle","Left","Left","Correct","1","6","0","507","1077","0"
"6.6.3","win","2025-01-07","09:43:06","6659fa442c09453f80c77223","80_20_tri","26","reward_feedback","0","0","1","1","111","111","31","V/S","Stable","Congruent","Triangle","Triangle","Right","Right","Correct","1","7","0","421","1760","0"
"6.6.3","win","2025-01-07","09:43:06","6659fa442c09453f80c77223","80_20_tri","26","punish_feedback","0","0","1","1","112","112","32","V/S","Stable","Incongruent","Triangle","Triangle","Left","Left","Correct","-1","6","0","1059","1883","0"
"6.6.3","win","2025-01-07","09:43:06","6659fa442c09453f80c77223","80_20_tri","26","punish_feedback","0","0","1","1","113","113","33","V/S","Stable","Congruent","Triangle","Triangle","Right","Left","Incorrect","-1","5","0","409","1268","0"
"6.6.3","win","2025-01-07","09:43:06","6659fa442c09453f80c77223","80_20_tri","26","reward_feedback","0","0","1","1","114","114","34","V/S","Stable","Congruent","Triangle","Triangle","Right","Right","Correct","1","6","0","415","1835","0"
"6.6.3","win","2025-01-07","09:43:06","6659fa442c09453f80c77223","80_20_tri","26","reward_feedback","0","0","1","1","115","115","35","V/S","Stable","Congruent","Triangle","Triangle","Left","Left","Correct","1","7","0","645","1063","0"
"6.6.3","win","2025-01-07","09:43:06","6659fa442c09453f80c77223","80_20_tri","27","reward_feedback","0","0","1","1","116","116","36","V/S","Stable","Congruent","Triangle","Triangle","Right","Right","Correct","1","8","0","434","1585","0"
"6.6.3","win","2025-01-07","09:43:06","6659fa442c09453f80c77223","80_20_tri","27","punish_feedback","0","0","1","1","117","117","37","V/S","Stable","Congruent","Triangle","Triangle","Right","Left","Incorrect","-1","7","0","453","1200","0"
"6.6.3","win","2025-01-07","09:43:06","6659fa442c09453f80c77223","80_20_tri","27","punish_feedback","0","0","1","1","118","118","38","V/S","Stable","Congruent","Triangle","Triangle","Right","Left","Incorrect","-1","6","0","393","1332","0"
"6.6.3","win","2025-01-07","09:43:06","6659fa442c09453f80c77223","80_20_tri","27","punish_feedback","0","0","1","1","119","119","39","V/S","Stable","Incongruent","Triangle","Triangle","Right","Right","Correct","-1","5","0","435","1087","0"
"6.6.3","win","2025-01-07","09:43:06","6659fa442c09453f80c77223","80_20_tri","27","punish_feedback","0","0","1","1","120","120","40","V/S","Stable","Congruent","Triangle","Triangle","Left","Right","Incorrect","-1","4","0","302","1149","0"
"6.6.3","win","2025-01-07","09:43:06","6659fa442c09453f80c77223","80_20_tri","28","reward_feedback","0","0","1","1","121","121","41","V/S","Stable","Congruent","Triangle","Triangle","Right","Right","Correct","1","5","0","473","1826","0"
"6.6.3","win","2025-01-07","09:43:06","6659fa442c09453f80c77223","80_20_tri","28","reward_feedback","0","0","1","1","122","122","42","V/S","Stable","Congruent","Triangle","Triangle","Left","Left","Correct","1","6","0","411","1617","0"
"6.6.3","win","2025-01-07","09:43:06","6659fa442c09453f80c77223","80_20_tri","28","reward_feedback","0","0","1","1","123","123","43","V/S","Stable","Congruent","Triangle","Triangle","Left","Left","Correct","1","7","0","457","1923","0"
"6.6.3","win","2025-01-07","09:43:06","6659fa442c09453f80c77223","80_20_tri","28","punish_feedback","0","0","1","1","124","124","44","V/S","Stable","Incongruent","Triangle","Triangle","Left","Left","Correct","-1","6","0","479","1133","0"
"6.6.3","win","2025-01-07","09:43:06","6659fa442c09453f80c77223","80_20_tri","28","reward_feedback","0","0","1","1","125","125","45","V/S","Stable","Congruent","Triangle","Triangle","Left","Left","Correct","1","7","0","775","1667","0"
"6.6.3","win","2025-01-07","09:43:06","6659fa442c09453f80c77223","80_20_tri","29","reward_feedback","0","0","1","1","126","126","46","V/S","Stable","Congruent","Triangle","Triangle","Left","Left","Correct","1","8","0","456","1470","0"
"6.6.3","win","2025-01-07","09:43:06","6659fa442c09453f80c77223","80_20_tri","29","punish_feedback","0","0","1","1","127","127","47","V/S","Stable","Incongruent","Triangle","Triangle","Right","Right","Correct","-1","7","0","415","1036","0"
"6.6.3","win","2025-01-07","09:43:06","6659fa442c09453f80c77223","80_20_tri","29","reward_feedback","0","0","1","1","128","128","48","V/S","Stable","Congruent","Triangle","Triangle","Right","Right","Correct","1","8","0","601","1498","0"
"6.6.3","win","2025-01-07","09:43:06","6659fa442c09453f80c77223","80_20_tri","29","punish_feedback","0","0","1","1","129","129","49","V/S","Stable","Congruent","Triangle","Triangle","Left","NR","Incorrect","-1","7","0","4000","1436","0"
"6.6.3","win","2025-01-07","09:43:06","6659fa442c09453f80c77223","80_20_tri","29","punish_feedback","0","0","1","1","130","130","50","V/S","Stable","Congruent","Triangle","Triangle","Left","NR","Incorrect","-1","6","0","4000","1447","0"
"6.6.3","win","2025-01-07","09:43:06","6659fa442c09453f80c77223","80_20_tri","30","reward_feedback","0","0","1","1","131","131","51","V/S","Stable","Congruent","Triangle","Triangle","Left","Left","Correct","1","7","0","1045","1101","0"
"6.6.3","win","2025-01-07","09:43:06","6659fa442c09453f80c77223","80_20_tri","30","reward_feedback","0","0","1","1","132","132","52","V/S","Stable","Congruent","Triangle","Triangle","Right","Right","Correct","1","8","0","400","1380","0"
"6.6.3","win","2025-01-07","09:43:06","6659fa442c09453f80c77223","80_20_tri","30","reward_feedback","0","0","1","1","133","133","53","V/S","Stable","Congruent","Triangle","Triangle","Left","Left","Correct","1","9","0","412","1953","0"
"6.6.3","win","2025-01-07","09:43:06","6659fa442c09453f80c77223","80_20_tri","30","reward_feedback","0","0","1","1","134","134","54","V/S","Stable","Congruent","Triangle","Triangle","Right","Right","Correct","1","10","0","233","1440","0"
"6.6.3","win","2025-01-07","09:43:06","6659fa442c09453f80c77223","80_20_tri","30","reward_feedback","0","0","1","1","135","135","55","V/S","Stable","Incongruent","Triangle","Triangle","Right","Left","Incorrect","1","11","0","252","1629","0"
"6.6.3","win","2025-01-07","09:43:06","6659fa442c09453f80c77223","80_20_tri","31","punish_feedback","0","0","1","1","136","136","56","V/S","Stable","Incongruent","Triangle","Triangle","Right","Right","Correct","-1","10","0","220","1545","0"
"6.6.3","win","2025-01-07","09:43:06","6659fa442c09453f80c77223","80_20_tri","31","reward_feedback","0","0","1","1","137","137","57","V/S","Stable","Congruent","Triangle","Triangle","Right","Right","Correct","1","11","0","376","1186","0"
"6.6.3","win","2025-01-07","09:43:06","6659fa442c09453f80c77223","80_20_tri","31","punish_feedback","0","0","1","1","138","138","58","V/S","Stable","Congruent","Triangle","Triangle","Right","Left","Incorrect","-1","10","0","310","1027","0"
"6.6.3","win","2025-01-07","09:43:06","6659fa442c09453f80c77223","80_20_tri","31","reward_feedback","0","0","1","1","139","139","59","V/S","Stable","Congruent","Triangle","Triangle","Right","Right","Correct","1","11","0","743","1297","0"
"6.6.3","win","2025-01-07","09:43:06","6659fa442c09453f80c77223","80_20_tri","31","punish_feedback","0","0","1","1","140","140","60","V/S","Stable","Congruent","Triangle","Triangle","Right","Left","Incorrect","-1","10","0","379","1326","0"
"6.6.3","win","2025-01-07","09:43:06","6659fa442c09453f80c77223","80_20_tri","32","reward_feedback","0","0","1","1","141","141","61","V/S","Stable","Congruent","Triangle","Triangle","Right","Right","Correct","1","11","0","314","1149","0"
"6.6.3","win","2025-01-07","09:43:06","6659fa442c09453f80c77223","80_20_tri","32","reward_feedback","0","0","1","1","142","142","62","V/S","Stable","Incongruent","Triangle","Triangle","Left","Right","Incorrect","1","12","0","854","1287","0"
"6.6.3","win","2025-01-07","09:43:06","6659fa442c09453f80c77223","80_20_tri","32","reward_feedback","0","0","1","1","143","143","63","V/S","Stable","Congruent","Triangle","Triangle","Left","Left","Correct","1","13","0","335","1286","0"
"6.6.3","win","2025-01-07","09:43:06","6659fa442c09453f80c77223","80_20_tri","32","reward_feedback","0","0","1","1","144","144","64","V/S","Stable","Congruent","Triangle","Triangle","Right","Right","Correct","1","14","0","262","1582","0"
"6.6.3","win","2025-01-07","09:43:06","6659fa442c09453f80c77223","80_20_tri","32","reward_feedback","0","0","1","1","145","145","65","V/S","Stable","Congruent","Triangle","Triangle","Left","Left","Correct","1","15","0","275","1109","0"
"6.6.3","win","2025-01-07","09:43:06","6659fa442c09453f80c77223","80_20_tri","33","punish_feedback","0","0","1","1","146","146","66","V/S","Stable","Congruent","Triangle","Triangle","Left","Right","Incorrect","-1","14","0","210","1447","0"
"6.6.3","win","2025-01-07","09:43:06","6659fa442c09453f80c77223","80_20_tri","33","punish_feedback","0","0","1","1","147","147","67","V/S","Stable","Congruent","Triangle","Triangle","Right","Left","Incorrect","-1","13","0","308","1003","0"
"6.6.3","win","2025-01-07","09:43:06","6659fa442c09453f80c77223","80_20_tri","33","reward_feedback","0","0","1","1","148","148","68","V/S","Stable","Congruent","Triangle","Triangle","Right","Right","Correct","1","14","0","133","1815","0"
"6.6.3","win","2025-01-07","09:43:06","6659fa442c09453f80c77223","80_20_tri","33","reward_feedback","0","0","1","1","149","149","69","V/S","Stable","Incongruent","Triangle","Triangle","Right","Left","Incorrect","1","15","0","296","1414","0"
"6.6.3","win","2025-01-07","09:43:06","6659fa442c09453f80c77223","80_20_tri","33","reward_feedback","0","0","1","1","150","150","70","V/S","Stable","Congruent","Triangle","Triangle","Right","Right","Correct","1","16","0","39","1845","0"
"6.6.3","win","2025-01-07","09:43:06","6659fa442c09453f80c77223","80_20_tri","34","punish_feedback","0","0","1","1","151","151","71","V/S","Stable","Congruent","Triangle","Triangle","Right","Left","Incorrect","-1","15","0","282","1187","0"
"6.6.3","win","2025-01-07","09:43:06","6659fa442c09453f80c77223","80_20_tri","34","punish_feedback","0","0","1","1","152","152","72","V/S","Stable","Incongruent","Triangle","Triangle","Left","Left","Correct","-1","14","0","498","1276","0"
"6.6.3","win","2025-01-07","09:43:06","6659fa442c09453f80c77223","80_20_tri","34","punish_feedback","0","0","1","1","153","153","73","V/S","Stable","Congruent","Triangle","Triangle","Left","Right","Incorrect","-1","13","0","502","1693","0"
"6.6.3","win","2025-01-07","09:43:06","6659fa442c09453f80c77223","80_20_tri","34","punish_feedback","0","0","1","1","154","154","74","V/S","Stable","Congruent","Triangle","Triangle","Right","Left","Incorrect","-1","12","0","295","1534","0"
"6.6.3","win","2025-01-07","09:43:06","6659fa442c09453f80c77223","80_20_tri","34","punish_feedback","0","0","1","1","155","155","75","V/S","Stable","Congruent","Triangle","Triangle","Left","Right","Incorrect","-1","11","0","305","1970","0"
"6.6.3","win","2025-01-07","09:43:06","6659fa442c09453f80c77223","80_20_tri","35","reward_feedback","0","0","1","1","156","156","76","V/S","Stable","Congruent","Triangle","Triangle","Left","Left","Correct","1","12","0","18","1994","0"
"6.6.3","win","2025-01-07","09:43:06","6659fa442c09453f80c77223","80_20_tri","35","punish_feedback","0","0","1","1","157","157","77","V/S","Stable","Congruent","Triangle","Triangle","Right","Left","Incorrect","-1","11","0","2292","1003","0"
"6.6.3","win","2025-01-07","09:43:06","6659fa442c09453f80c77223","80_20_tri","35","punish_feedback","0","0","1","1","158","158","78","V/S","Stable","Congruent","Triangle","Triangle","Left","Right","Incorrect","-1","10","0","979","1290","0"
"6.6.3","win","2025-01-07","09:43:06","6659fa442c09453f80c77223","80_20_tri","35","reward_feedback","0","0","1","1","159","159","79","V/S","Stable","Congruent","Triangle","Triangle","Right","Right","Correct","1","11","0","1367","1100","0"
"6.6.3","win","2025-01-07","09:43:06","6659fa442c09453f80c77223","80_20_tri","35","reward_feedback","0","0","1","1","160","160","80","V/S","Stable","Incongruent","Triangle","Triangle","Right","Left","Incorrect","1","12","0","1233","1022","0"
"6.6.3","win","2025-01-07","09:43:06","6659fa442c09453f80c77223","DebriefSelection","38","DebriefSelection","GeneralDebriefButton","1","1","1","160","160","80","V/S","Stable","Incongruent","Triangle","Triangle","Right","Left","Incorrect","1","12","0","1233","1022","0"
"6.6.3","win","2025-01-07","09:43:06","6659fa442c09453f80c77223","DebriefSelection","38","GeneralDebrieftitle","Continue","1","1","1","160","160","80","V/S","Stable","Incongruent","Triangle","Triangle","Right","Left","Incorrect","1","12","0","1233","1022","0"
"6.6.3","win","2025-01-07","09:43:06","6659fa442c09453f80c77223","DebriefSelection","38","GeneralDebrief1","Continue","1","1","1","160","160","80","V/S","Stable","Incongruent","Triangle","Triangle","Right","Left","Incorrect","1","12","0","1233","1022","0"
"6.6.3","win","2025-01-07","09:43:06","6659fa442c09453f80c77223","DebriefSelection","38","GeneralDebrief2","Continue","1","1","1","160","160","80","V/S","Stable","Incongruent","Triangle","Triangle","Right","Left","Incorrect","1","12","0","1233","1022","0"
"6.6.3","win","2025-01-07","09:43:06","6659fa442c09453f80c77223","DebriefSelection","38","GeneralDebrief3","Continue","1","1","1","160","160","80","V/S","Stable","Incongruent","Triangle","Triangle","Right","Left","Incorrect","1","12","0","1233","1022","0"
"6.6.3","win","2025-01-07","09:43:06","6659fa442c09453f80c77223","DebriefSelection","38","Submission","DebriefSelectionButton","0","1","1","160","160","80","V/S","Stable","Incongruent","Triangle","Triangle","Right","Left","Incorrect","1","12","0","1233","1022","0"
"6.6.3","win","2025-01-07","09:43:06","6659fa442c09453f80c77223","DebriefSelection","38","DebriefSelection","StudentDebriefButton","0","1","1","160","160","80","V/S","Stable","Incongruent","Triangle","Triangle","Right","Left","Incorrect","1","12","0","1233","1022","0"
"6.6.3","win","2025-01-07","09:43:06","6659fa442c09453f80c77223","DebriefSelection","38","StudentDebrieftitle","Continue","1","1","1","160","160","80","V/S","Stable","Incongruent","Triangle","Triangle","Right","Left","Incorrect","1","12","0","1233","1022","0"
"6.6.3","win","2025-01-07","09:43:06","6659fa442c09453f80c77223","DebriefSelection","38","StudentDebrief1","Continue","1","1","1","160","160","80","V/S","Stable","Incongruent","Triangle","Triangle","Right","Left","Incorrect","1","12","0","1233","1022","0"
"6.6.3","win","2025-01-07","09:43:06","6659fa442c09453f80c77223","DebriefSelection","38","StudentDebrief2","Continue","1","1","1","160","160","80","V/S","Stable","Incongruent","Triangle","Triangle","Right","Left","Incorrect","1","12","0","1233","1022","0"
"6.6.3","win","2025-01-07","09:43:06","6659fa442c09453f80c77223","DebriefSelection","38","StudentDebrief3","Continue","1","1","1","160","160","80","V/S","Stable","Incongruent","Triangle","Triangle","Right","Left","Incorrect","1","12","0","1233","1022","0"
"6.6.3","win","2025-01-07","09:43:06","6659fa442c09453f80c77223","DebriefSelection","38","StudentDebrief4","Continue","1","1","1","160","160","80","V/S","Stable","Incongruent","Triangle","Triangle","Right","Left","Incorrect","1","12","0","1233","1022","0"
"6.6.3","win","2025-01-07","09:43:06","6659fa442c09453f80c77223","DebriefSelection","38","Submission","SubmissionButton","1","1","1","160","160","80","V/S","Stable","Incongruent","Triangle","Triangle","Right","Left","Incorrect","1","12","0","1233","1022","1"
"6.6.1","mac","2025-01-07","09:43:06","63d79fcd741f9cfb2f87152f","Consent","1","Consenttitle","","1","0","0","0","0","0","V/S","Volatile","","Circle","0","","","","0","0","0","0","0","0"
"6.6.1","mac","2025-01-07","09:43:06","63d79fcd741f9cfb2f87152f","Consent","1","consent_1option1","Agree","1","0","0","0","0","0","V/S","Volatile","","Circle","0","","","","0","0","0","0","0","0"
"6.6.1","mac","2025-01-07","09:43:06","63d79fcd741f9cfb2f87152f","Consent","1","consent_2option1","Agree","1","0","0","0","0","0","V/S","Volatile","","Circle","0","","","","0","0","0","0","0","0"
"6.6.1","mac","2025-01-07","09:43:06","63d79fcd741f9cfb2f87152f","Consent","1","consent_3option1","Agree","1","0","0","0","0","0","V/S","Volatile","","Circle","0","","","","0","0","0","0","0","0"
"6.6.1","mac","2025-01-07","09:43:06","63d79fcd741f9cfb2f87152f","Consent","1","consent_4option1","Agree","1","0","0","0","0","0","V/S","Volatile","","Circle","0","","","","0","0","0","0","0","0"
"6.6.1","mac","2025-01-07","09:43:06","63d79fcd741f9cfb2f87152f","Consent","1","consent_5option1","Agree","1","0","0","0","0","0","V/S","Volatile","","Circle","0","","","","0","0","0","0","0","0"
"6.6.1","mac","2025-01-07","09:43:06","63d79fcd741f9cfb2f87152f","Consent","1","consent_6option1","Agree","1","0","0","0","0","0","V/S","Volatile","","Circle","0","","","","0","0","0","0","0","0"
"6.6.1","mac","2025-01-07","09:43:06","63d79fcd741f9cfb2f87152f","Consent","1","consent_7option1","Agree","1","0","0","0","0","0","V/S","Volatile","","Circle","0","","","","0","0","0","0","0","0"
"6.6.1","mac","2025-01-07","09:43:06","63d79fcd741f9cfb2f87152f","Consent","1","consent_8option1","Agree","1","0","0","0","0","0","V/S","Volatile","","Circle","0","","","","0","0","0","0","0","0"
"6.6.1","mac","2025-01-07","09:43:06","63d79fcd741f9cfb2f87152f","Consent","1","consent_9option1","Agree","1","0","0","0","0","0","V/S","Volatile","","Circle","0","","","","0","0","0","0","0","0"
"6.6.1","mac","2025-01-07","09:43:06","63d79fcd741f9cfb2f87152f","Consent","1","consent_10option1","Agree","1","0","0","0","0","0","V/S","Volatile","","Circle","0","","","","0","0","0","0","0","0"
"6.6.1","mac","2025-01-07","09:43:06","63d79fcd741f9cfb2f87152f","Consent","1","consent_11option1","Agree","1","0","0","0","0","0","V/S","Volatile","","Circle","0","","","","0","0","0","0","0","0"
"6.6.1","mac","2025-01-07","09:43:06","63d79fcd741f9cfb2f87152f","Consent","1","consent_12option1","Agree","1","0","0","0","0","0","V/S","Volatile","","Circle","0","","","","0","0","0","0","0","0"
"6.6.1","mac","2025-01-07","09:43:06","63d79fcd741f9cfb2f87152f","80_20_cir","4","punish_feedback","0","0","1","1","1","1","1","V/S","Volatile","Congruent","Circle","Circle","Right","Left","Incorrect","-1","-1","1","1092","1589","0"
"6.6.1","mac","2025-01-07","09:43:06","63d79fcd741f9cfb2f87152f","80_20_cir","4","reward_feedback","0","0","1","1","2","2","2","V/S","Volatile","Congruent","Circle","Circle","Right","Right","Correct","1","0","2","2193","1715","0"
"6.6.1","mac","2025-01-07","09:43:06","63d79fcd741f9cfb2f87152f","80_20_cir","4","reward_feedback","0","0","1","1","3","3","3","V/S","Volatile","Incongruent","Circle","Circle","Left","Right","Incorrect","1","1","3","376","1582","0"
"6.6.1","mac","2025-01-07","09:43:06","63d79fcd741f9cfb2f87152f","80_20_cir","4","punish_feedback","0","0","1","1","4","4","4","V/S","Volatile","Congruent","Circle","Circle","Left","Right","Incorrect","-1","0","4","426","1927","0"
"6.6.1","mac","2025-01-07","09:43:06","63d79fcd741f9cfb2f87152f","80_20_cir","4","punish_feedback","0","0","1","1","5","5","5","V/S","Volatile","Congruent","Circle","Circle","Left","Right","Incorrect","-1","-1","5","327","1199","0"
"6.6.1","mac","2025-01-07","09:43:06","63d79fcd741f9cfb2f87152f","80_20_cir","5","punish_feedback","0","0","1","1","6","6","6","V/S","Volatile","Congruent","Circle","Circle","Left","Right","Incorrect","-1","-2","6","469","1880","0"
"6.6.1","mac","2025-01-07","09:43:06","63d79fcd741f9cfb2f87152f","80_20_cir","5","reward_feedback","0","0","1","1","7","7","7","V/S","Volatile","Congruent","Circle","Circle","Right","Right","Correct","1","-1","7","370","1530","0"
"6.6.1","mac","2025-01-07","09:43:06","63d79fcd741f9cfb2f87152f","80_20_cir","5","reward_feedback","0","0","1","1","8","8","8","V/S","Volatile","Congruent","Circle","Circle","Right","Right","Correct","1","0","8","418","1173","0"
"6.6.1","mac","2025-01-07","09:43:06","63d79fcd741f9cfb2f87152f","80_20_cir","5","reward_feedback","0","0","1","1","9","9","9","V/S","Volatile","Congruent","Circle","Circle","Right","Right","Correct","1","1","9","554","1752","0"
"6.6.1","mac","2025-01-07","09:43:06","63d79fcd741f9cfb2f87152f","80_20_cir","5","reward_feedback","0","0","1","1","10","10","10","V/S","Volatile","Incongruent","Circle","Circle","Right","Left","Incorrect","1","2","10","1283","1771","0"
"6.6.1","mac","2025-01-07","09:43:06","63d79fcd741f9cfb2f87152f","80_20_cir","6","reward_feedback","0","0","1","1","11","11","11","V/S","Volatile","Congruent","Circle","Circle","Left","Left","Correct","1","3","11","328","1498","0"
"6.6.1","mac","2025-01-07","09:43:06","63d79fcd741f9cfb2f87152f","80_20_cir","6","reward_feedback","0","0","1","1","12","12","12","V/S","Volatile","Congruent","Circle","Circle","Right","Right","Correct","1","4","12","1370","1559","0"
"6.6.1","mac","2025-01-07","09:43:06","63d79fcd741f9cfb2f87152f","80_20_cir","6","reward_feedback","0","0","1","1","13","13","13","V/S","Volatile","Congruent","Circle","Circle","Right","Right","Correct","1","5","13","679","1085","0"
"6.6.1","mac","2025-01-07","09:43:06","63d79fcd741f9cfb2f87152f","80_20_cir","6","reward_feedback","0","0","1","1","14","14","14","V/S","Volatile","Congruent","Circle","Circle","Left","Left","Correct","1","6","14","12","1508","0"
"6.6.1","mac","2025-01-07","09:43:06","63d79fcd741f9cfb2f87152f","80_20_cir","6","punish_feedback","0","0","1","1","15","15","15","V/S","Volatile","Incongruent","Circle","Circle","Left","Left","Correct","-1","5","15","907","1564","0"
"6.6.1","mac","2025-01-07","09:43:06","63d79fcd741f9cfb2f87152f","80_20_cir","7","punish_feedback","0","0","1","1","16","16","16","V/S","Volatile","Congruent","Circle","Circle","Right","Left","Incorrect","-1","4","16","1127","1740","0"
"6.6.1","mac","2025-01-07","09:43:06","63d79fcd741f9cfb2f87152f","80_20_cir","7","punish_feedback","0","0","1","1","17","17","17","V/S","Volatile","Congruent","Circle","Circle","Left","Right","Incorrect","-1","3","17","756","1066","0"
"6.6.1","mac","2025-01-07","09:43:06","63d79fcd741f9cfb2f87152f","80_20_cir","7","punish_feedback","0","0","1","1","18","18","18","V/S","Volatile","Congruent","Circle","Circle","Left","Right","Incorrect","-1","2","18","245","1181","0"
"6.6.1","mac","2025-01-07","09:43:06","63d79fcd741f9cfb2f87152f","80_20_cir","7","punish_feedback","0","0","1","1","19","19","19","V/S","Volatile","Congruent","Circle","Circle","Left","Right","Incorrect","-1","1","19","327","1260","0"
"6.6.1","mac","2025-01-07","09:43:06","63d79fcd741f9cfb2f87152f","80_20_cir","7","punish_feedback","0","0","1","1","20","20","20","V/S","Volatile","Incongruent","Circle","Circle","Right","Right","Correct","-1","0","20","236","1119","0"
"6.6.1","mac","2025-01-07","09:43:06","63d79fcd741f9cfb2f87152f","80_20_tri","8","reward_feedback","0","0","1","1","21","21","21","V/S","Volatile","Congruent","Circle","Triangle","Right","Right","Correct","1","1","1","307","1716","0"
"6.6.1","mac","2025-01-07","09:43:06","63d79fcd741f9cfb2f87152f","80_20_tri","8","reward_feedback","0","0","1","1","22","22","22","V/S","Volatile","Incongruent","Circle","Triangle","Left","Right","Incorrect","1","2","2","547","1069","0"
"6.6.1","mac","2025-01-07","09:43:06","63d79fcd741f9cfb2f87152f","80_20_tri","8","reward_feedback","0","0","1","1","23","23","23","V/S","Volatile","Congruent","Circle","Triangle","Right","Right","Correct","1","3","3","277","1745","0"
"6.6.1","mac","2025-01-07","09:43:06","63d79fcd741f9cfb2f87152f","80_20_tri","8","punish_feedback","0","0","1","1","24","24","24","V/S","Volatile","Congruent","Circle","Triangle","Right","Left","Incorrect","-1","2","4","477","1047","0"
"6.6.1","mac","2025-01-07","09:43:06","63d79fcd741f9cfb2f87152f","80_20_tri","8","punish_feedback","0","0","1","1","25","25","25","V/S","Volatile","Congruent","Circle","Triangle","Right","Left","Incorrect","-1","1","5","399","1077","0"
"6.6.1","mac","2025-01-07","09:43:06","63d79fcd741f9cfb2f87152f","80_20_tri","9","punish_feedback","0","0","1","1","26","26","26","V/S","Volatile","Congruent","Circle","Triangle","Left","Right","Incorrect","-1","0","6","311","1481","0"
"6.6.1","mac","2025-01-07","09:43:06","63d79fcd741f9cfb2f87152f","80_20_tri","9","punish_feedback","0","0","1","1","27","27","27","V/S","Volatile","Congruent","Circle","Triangle","Left","Right","Incorrect","-1","-1","7","220","1943","0"
"6.6.1","mac","2025-01-07","09:43:06","63d79fcd741f9cfb2f87152f","80_20_tri","9","punish_feedback","0","0","1","1","28","28","28","V/S","Volatile","Incongruent","Circle","Triangle","Left","Left","Correct","-1","-2","8","403","1942","0"
"6.6.1","mac","2025-01-07","09:43:06","63d79fcd741f9cfb2f87152f","80_20_tri","9","punish_feedback","0","0","1","1","29","29","29","V/S","Volatile","Congruent","Circle","Triangle","Left","Right","Incorrect","-1","-3","9","1913","1812","0"
"6.6.1","mac","2025-01-07","09:43:06","63d79fcd741f9cfb2f87152f","80_20_tri","9","reward_feedback","0","0","1","1","30","30","30","V/S","Volatile","Congruent","Circle","Triangle","Right","Right","Correct","1","-2","10","712","1032","0"
"6.6.1","mac","2025-01-07","09:43:06","63d79fcd741f9cfb2f87152f","80_20_tri","10","reward_feedback","0","0","1","1","31","31","31","V/S","Volatile","Congruent","Circle","Triangle","Right","Right","Correct","1","-1","11","500","1531","0"
"6.6.1","mac","2025-01-07","09:43:06","63d79fcd741f9cfb2f87152f","80_20_tri","10","reward_feedback","0","0","1","1","32","32","32","V/S","Volatile","Congruent","Circle","Triangle","Right","Right","Correct","1","0","12","458","1084","0"
"6.6.1","mac","2025-01-07","09:43:06","63d79fcd741f9cfb2f87152f","80_20_tri","10","reward_feedback","0","0","1","1","33","33","33","V/S","Volatile","Incongruent","Circle","Triangle","Left","Right","Incorrect","1","1","13","378","1304","0"
"6.6.1","mac","2025-01-07","09:43:06","63d79fcd741f9cfb2f87152f","80_20_tri","10","reward_feedback","0","0","1","1","34","34","34","V/S","Volatile","Congruent","Circle","Triangle","Right","Right","Correct","1","2","14","298","1986","0"
"6.6.1","mac","2025-01-07","09:43:06","63d79fcd741f9cfb2f87152f","80_20_tri","10","punish_feedback","0","0","1","1","35","35","35","V/S","Volatile","Congruent","Circle","Triangle","Left","Right","Incorrect","-1","1","15","460","1181","0"
"6.6.1","mac","2025-01-07","09:43:06","63d79fcd741f9cfb2f87152f","80_20_tri","11","reward_feedback","0","0","1","1","36","36","36","V/S","Volatile","Incongruent","Circle","Triangle","Right","Left","Incorrect","1","2","16","360","1787","0"
"6.6.1","mac","2025-01-07","09:43:06","63d79fcd741f9cfb2f87152f","80_20_tri","11","reward_feedback","0","0","1","1","37","37","37","V/S","Volatile","Congruent","Circle","Triangle","Left","Left","Correct","1","3","17","364","1100","0"
"6.6.1","mac","2025-01-07","09:43:06","63d79fcd741f9cfb2f87152f","80_20_tri","11","punish_feedback","0","0","1","1","38","38","38","V/S","Volatile","Congruent","Circle","Triangle","Right","Left","Incorrect","-1","2","18","318","1741","0"
"6.6.1","mac","2025-01-07","09:43:06","63d79fcd741f9cfb2f87152f","80_20_tri","11","punish_feedback","0","0","1","1","39","39","39","V/S","Volatile","Congruent","Circle","Triangle","Left","Right","Incorrect","-1","1","19","813","1841","0"
"6.6.1","mac","2025-01-07","09:43:06","63d79fcd741f9cfb2f87152f","80_20_tri","11","reward_feedback","0","0","1","1","40","40","40","V/S","Volatile","Congruent","Circle","Triangle","Right","Right","Correct","1","2","20","345","1439","0"
"6.6.1","mac","2025-01-07","09:43:06","63d79fcd741f9cfb2f87152f","80_20_cir","12","reward_feedback","0","0","1","1","41","41","41","V/S","Volatile","Congruent","Circle","Circle","Right","Right","Correct","1","3","1","633","1620","0"
"6.6.1","mac","2025-01-07","09:43:06","63d79fcd741f9cfb2f87152f","80_20_cir","12","punish_feedback","0","0","1","1","42","42","42","V/S","Volatile","Congruent","Circle","Circle","Left","Right","Incorrect","-1","2","2","603","1874","0"
"6.6.1","mac","2025-01-07","09:43:06","63d79fcd741f9cfb2f87152f","80_20_cir","12","punish_feedback","0","0","1","1","43","43","43","V/S","Volatile","Congruent","Circle","Circle","Right","Left","Incorrect","-1","1","3","789","1049","0"
"6.6.1","mac","2025-01-07","09:43:06","63d79fcd741f9cfb2f87152f","80_20_cir","12","reward_feedback","0","0","1","1","44","44","44","V/S","Volatile","Incongruent","Circle","Circle","Right","Left","Incorrect","1","2","4","347","1209","0"
"6.6.1","mac","2025-01-07","09:43:06","63d79fcd741f9cfb2f87152f","80_20_cir","12","punish_feedback","0","0","1","1","45","45","45","V/S","Volatile","Congruent","Circle","Circle","Right","Left","Incorrect","-1","1","5","334","1515","0"
"6.6.1","mac","2025-01-07","09:43:06","63d79fcd741f9cfb2f87152f","80_20_cir","13","reward_feedback","0","0","1","1","46","46","46","V/S","Volatile","Incongruent","Circle","Circle","Left","Right","Incorrect","1","2","6","249","1522","0"
"6.6.1","mac","2025-01-07","09:43:06","63d79fcd741f9cfb2f87152f","80_20_cir","13","reward_feedback","0","0","1","1","47","47","47","V/S","Volatile","Congruent","Circle","Circle","Right","Right","Correct","1","3","7","333","1453","0"
"6.6.1","mac","2025-01-07","09:43:06","63d79fcd741f9cfb2f87152f","80_20_cir","13","reward_feedback","0","0","1","1","48","48","48","V/S","Volatile","Congruent","Circle","Circle","Right","Right","Correct","1","4","8","410","1859","0"
"6.6.1","mac","2025-01-07","09:43:06","63d79fcd741f9cfb2f87152f","80_20_cir","13","punish_feedback","0","0","1","1","49","49","49","V/S","Volatile","Congruent","Circle","Circle","Left","Right","Incorrect","-1","3","9","202","1547","0"
"6.6.1","mac","2025-01-07","09:43:06","63d79fcd741f9cfb2f87152f","80_20_cir","13","reward_feedback","0","0","1","1","50","50","50","V/S","Volatile","Congruent","Circle","Circle","Right","Right","Correct","1","4","10","394","1541","0"
"6.6.1","mac","2025-01-07","09:43:06","63d79fcd741f9cfb2f87152f","80_20_cir","14","punish_feedback","0","0","1","1","51","51","51","V/S","Volatile","Congruent","Circle","Circle","Left","Right","Incorrect","-1","3","11","314","1575","0"
"6.6.1","mac","2025-01-07","09:43:06","63d79fcd741f9cfb2f87152f","80_20_cir","14","reward_feedback","0","0","1","1","52","52","52","V/S","Volatile","Incongruent","Circle","Circle","Right","Left","Incorrect","1","4","12","557","1170","0"
"6.6.1","mac","2025-01-07","09:43:06","63d79fcd741f9cfb2f87152f","80_20_cir","14","reward_feedback","0","0","1","1","53","53","53","V/S","Volatile","Congruent","Circle","Circle","Left","Left","Correct","1","5","13","357","1381","0"
"6.6.1","mac","2025-01-07","09:43:06","63d79fcd741f9cfb2f87152f","80_20_cir","14","reward_feedback","0","0","1","1","54","54","54","V/S","Volatile","Congruent","Circle","Circle","Left","Left","Correct","1","6","14","891","1015","0"
"6.6.1","mac","2025-01-07","09:43:06","63d79fcd741f9cfb2f87152f","80_20_cir","14","reward_feedback","0","0","1","1","55","55","55","V/S","Volatile","Congruent","Circle","Circle","Right","Right","Correct","1","7","15","156","1672","0"
"6.6.1","mac","2025-01-07","09:43:06","63d79fcd741f9cfb2f87152f","80_20_cir","15","reward_feedback","0","0","1","1","56","56","56","V/S","Volatile","Congruent","Circle","Circle","Right","Right","Correct","1","8","16","322","1627","0"
"6.6.1","mac","2025-01-07","09:43:06","63d79fcd741f9cfb2f87152f","80_20_cir","15","punish_feedback","0","0","1","1","57","57","57","V/S","Volatile","Congruent","Circle","Circle","Left","Right","Incorrect","-1","7","17","442","1413","0"
"6.6.1","mac","2025-01-07","09:43:06","63d79fcd741f9cfb2f87152f","80_20_cir","15","reward_feedback","0","0","1","1","58","58","58","V/S","Volatile","Congruent","Circle","Circle","Left","Left","Correct","1","8","18","235","1882","0"
"6.6.1","mac","2025-01-07","09:43:06","63d79fcd741f9cfb2f87152f","80_20_cir","15","punish_feedback","0","0","1","1","59","59","59","V/S","Volatile","Incongruent","Circle","Circle","Left","Left","Correct","-1","7","19","1","1578","0"
"6.6.1","mac","2025-01-07","09:43:06","63d79fcd741f9cfb2f87152f","80_20_cir","15","reward_feedback","0","0","1","1","60","60","60","V/S","Volatile","Congruent","Circle","Circle","Right","Right","Correct","1","8","20","471","1388","0"
"6.6.1","mac","2025-01-07","09:43:06","63d79fcd741f9cfb2f87152f","80_20_tri","16","punish_feedback","0","0","1","1","61","61","61","V/S","Volatile","Congruent","Circle","Triangle","Left","Right","Incorrect","-1","7","1","323","1203","0"
"6.6.1","mac","2025-01-07","09:43:06","63d79fcd741f9cfb2f87152f","80_20_tri","16","reward_feedback","0","0","1","1","62","62","62","V/S","Volatile","Congruent","Circle","Triangle","Left","Left","Correct","1","8","2","523","1189","0"
"6.6.1","mac","2025-01-07","09:43:06","63d79fcd741f9cfb2f87152f","80_20_tri","16","punish_feedback","0","0","1","1","63","63","63","V/S","Volatile","Incongruent","Circle","Triangle","Left","Left","Correct","-1","7","3","434","1073","0"
"6.6.1","mac","2025-01-07","09:43:06","63d79fcd741f9cfb2f87152f","80_20_tri","16","reward_feedback","0","0","1","1","64","64","64","V/S","Volatile","Congruent","Circle","Triangle","Left","Left","Correct","1","8","4","82","1496","0"
"6.6.1","mac","2025-01-07","09:43:06","63d79fcd741f9cfb2f87152f","80_20_tri","16","punish_feedback","0","0","1","1","65","65","65","V/S","Volatile","Congruent","Circle","Triangle","Left","Right","Incorrect","-1","7","5","351","1570","0"
"6.6.1","mac","2025-01-07","09:43:06","63d79fcd741f9cfb2f87152f","80_20_tri","17","punish_feedback","0","0","1","1","66","66","66","V/S","Volatile","Congruent","Circle","Triangle","Left","Right","Incorrect","-1","6","6","256","1753","0"
"6.6.1","mac","2025-01-07","09:43:06","63d79fcd741f9cfb2f87152f","80_20_tri","17","reward_feedback","0","0","1","1","67","67","67","V/S","Volatile","Incongruent","Circle","Triangle","Left","Right","Incorrect","1","7","7","431","1256","0"
"6.6.1","mac","2025-01-07","09:43:06","63d79fcd741f9cfb2f87152f","80_20_tri","17","reward_feedback","0","0","1","1","68","68","68","V/S","Volatile","Congruent","Circle","Triangle","Right","Right","Correct","1","8","8","579","1233","0"
"6.6.1","mac","2025-01-07","09:43:06","63d79fcd741f9cfb2f87152f","80_20_tri","17","punish_feedback","0","0","1","1","69","69","69","V/S","Volatile","Congruent","Circle","Triangle","Left","Right","Incorrect","-1","7","9","389","1534","0"
"6.6.1","mac","2025-01-07","09:43:06","63d79fcd741f9cfb2f87152f","80_20_tri","17","punish_feedback","0","0","1","1","70","70","70","V/S","Volatile","Congruent","Circle","Triangle","Right","Left","Incorrect","-1","6","10","340","1993","0"
"6.6.1","mac","2025-01-07","09:43:06","63d79fcd741f9cfb2f87152f","80_20_tri","18","reward_feedback","0","0","1","1","71","71","71","V/S","Volatile","Congruent","Circle","Triangle","Right","Right","Correct","1","7","11","336","1508","0"
"6.6.1","mac","2025-01-07","09:43:06","63d79fcd741f9cfb2f87152f","80_20_tri","18","reward_feedback","0","0","1","1","72","72","72","V/S","Volatile","Congruent","Circle","Triangle","Right","Right","Correct","1","8","12","516","1720","0"
"6.6.1","mac","2025-01-07","09:43:06","63d79fcd741f9cfb2f87152f","80_20_tri","18","punish_feedback","0","0","1","1","73","73","73","V/S","Volatile","Incongruent","Circle","Triangle","Right","Right","Correct","-1","7","13","716","1220","0"
"6.6.1","mac","2025-01-07","09:43:06","63d79fcd741f9cfb2f87152f","80_20_tri","18","punish_feedback","0","0","1","1","74","74","74","V/S","Volatile","Congruent","Circle","Triangle","Left","Right","Incorrect","-1","6","14","357","1417","0"
"6.6.1","mac","2025-01-07","09:43:06","63d79fcd741f9cfb2f87152f","80_20_tri","18","punish_feedback","0","0","1","1","75","75","75","V/S","Volatile","Congruent","Circle","Triangle","Left","Right","Incorrect","-1","5","15","290","1652","0"
"6.6.1","mac","2025-01-07","09:43:06","63d79fcd741f9cfb2f87152f","80_20_tri","19","reward_feedback","0","0","1","1","76","76","76","V/S","Volatile","Congruent","Circle","Triangle","Right","Right","Correct","1","6","16","291","1863","0"
"6.6.1","mac","2025-01-07","09:43:06","63d79fcd741f9cfb2f87152f","80_20_tri","19","reward_feedback","0","0","1","1","77","77","77","V/S","Volatile","Congruent","Circle","Triangle","Right","Right","Correct","1","7","17","626","1049","0"
"6.6.1","mac","2025-01-07","09:43:06","63d79fcd741f9cfb2f87152f","80_20_tri","19","punish_feedback","0","0","1","1","78","78","78","V/S","Volatile","Congruent","Circle","Triangle","Left","Right","Incorrect","-1","6","18","351","1219","0"
"6.6.1","mac","2025-01-07","09:43:06","63d79fcd741f9cfb2f87152f","80_20_tri","19","punish_feedback","0","0","1","1","79","79","79","V/S","Volatile","Congruent","Circle","Triangle","Left","Right","Incorrect","-1","5","19","267","1685","0"
"6.6.1","mac","2025-01-07","09:43:06","63d79fcd741f9cfb2f87152f","80_20_tri","19","punish_feedback","0","0","1","1","80","80","80","V/S","Volatile","Incongruent","Circle","Triangle","Right","Right","Correct","-1","4","20","74","1912","0"
"6.6.1","mac","2025-01-07","09:43:06","63d79fcd741f9cfb2f87152f","80_20_cir","20","punish_feedback","0","0","1","1","81","81","1","V/S","Stable","Congruent","Circle","Circle","Left","Right","Incorrect","-1","3","0","562","1069","0"
"6.6.1","mac","2025-01-07","09:43:06","63d79fcd741f9cfb2f87152f","80_20_cir","20","punish_feedback","0","0","1","1","82","82","2","V/S","Stable","Congruent","Circle","Circle","Left","Right","Incorrect","-1","2","0","302","1903","0"
"6.6.1","mac","2025-01-07","09:43:06","63d79fcd741f9cfb2f87152f","80_20_cir","20","reward_feedback","0","0","1","1","83","83","3","V/S","Stable","Incongruent","Circle","Circle","Left","Right","Incorrect","1","3","0","283","1491","0"
"6.6.1","mac","2025-01-07","09:43:06","63d79fcd741f9cfb2f87152f","80_20_cir","20","punish_feedback","0","0","1","1","84","84","4","V/S","Stable","Congruent","Circle","Circle","Left","Right","Incorrect","-1","2","0","322","1710","0"
"6.6.1","mac","2025-01-07","09:43:06","63d79fcd741f9cfb2f87152f","80_20_cir","20","reward_feedback","0","0","1","1","85","85","5","V/S","Stable","Congruent","Circle","Circle","Right","Right","Correct","1","3","0","277","1340","0"
"6.6.1","mac","2025-01-07","09:43:06","63d79fcd741f9cfb2f87152f","80_20_cir","21","reward_feedback","0","0","1","1","86","86","6","V/S","Stable","Congruent","Circle","Circle","Right","Right","Correct","1","4","0","74","1968","0"
"6.6.1","mac","2025-01-07","09:43:06","63d79fcd741f9cfb2f87152f","80_20_cir","21","reward_feedback","0","0","1","1","87","87","7","V/S","Stable","Congruent","Circle","Circle","Right","Right","Correct","1","5","0","539","1233","0"
"6.6.1","mac","2025-01-07","09:43:06","63d79fcd741f9cfb2f87152f","80_20_cir","21","reward_feedback","0","0","1","1","88","88","8","V/S","Stable","Incongruent","Circle","Circle","Right","Left","Incorrect","1","6","0","384","1272","0"
"6.6.1","mac","2025-01-07","09:43:06","63d79fcd741f9cfb2f87152f","80_20_cir","21","reward_feedback","0","0","1","1","89","89","9","V/S","Stable","Congruent","Circle","Circle","Left","Left","Correct","1","7","0","301","1694","0"
"6.6.1","mac","2025-01-07","09:43:06","63d79fcd741f9cfb2f87152f","80_20_cir","21","reward_feedback","0","0","1","1","90","90","10","V/S","Stable","Congruent","Circle","Circle","Left","Left","Correct","1","8","0","586","1291","0"
"6.6.1","mac","2025-01-07","09:43:06","63d79fcd741f9cfb2f87152f","80_20_cir","22","reward_feedback","0","0","1","1","91","91","11","V/S","Stable","Congruent","Circle","Circle","Right","Right","Correct","1","9","0","102","1269","0"
"6.6.1","mac","2025-01-07","09:43:06","63d79fcd741f9cfb2f87152f","80_20_cir","22","punish_feedback","0","0","1","1","92","92","12","V/S","Stable","Congruent","Circle","Circle","Left","Right","Incorrect","-1","8","0","373","1276","0"
"6.6.1","mac","2025-01-07","09:43:06","63d79fcd741f9cfb2f87152f","80_20_cir","22","reward_feedback","0","0","1","1","93","93","13","V/S","Stable","Incongruent","Circle","Circle","Left","Right","Incorrect","1","9","0","336","1702","0"
"6.6.1","mac","2025-01-07","09:43:06","63d79fcd741f9cfb2f87152f","80_20_cir","22","reward_feedback","0","0","1","1","94","94","14","V/S","Stable","Congruent","Circle","Circle","Right","Right","Correct","1","10","0","285","1465","0"
"6.6.1","mac","2025-01-07","09:43:06","63d79fcd741f9cfb2f87152f","80_20_cir","22","punish_feedback","0","0","1","1","95","95","15","V/S","Stable","Congruent","Circle","Circle","Left","Right","Incorrect","-1","9","0","248","1581","0"
"6.6.1","mac","2025-01-07","09:43:06","63d79fcd741f9cfb2f87152f","80_20_cir","23","punish_feedback","0","0","1","1","96","96","16","V/S","Stable","Congruent","Circle","Circle","Right","Left","Incorrect","-1","8","0","248","1742","0"
"6.6.1","mac","2025-01-07","09:43:06","63d79fcd741f9cfb2f87152f","80_20_cir","23","punish_feedback","0","0","1","1","97","97","17","V/S","Stable","Congruent","Circle","Circle","Right","Left","Incorrect","-1","7","0","176","1868","0"
"6.6.1","mac","2025-01-07","09:43:06","63d79fcd741f9cfb2f87152f","80_20_cir","23","punish_feedback","0","0","1","1","98","98","18","V/S","Stable","Congruent","Circle","Circle","Left","Right","Incorrect","-1","6","0","247","1790","0"
"6.6.1","mac","2025-01-07","09:43:06","63d79fcd741f9cfb2f87152f","80_20_cir","23","reward_feedback","0","0","1","1","99","99","19","V/S","Stable","Congruent","Circle","Circle","Right","Right","Correct","1","7","0","303","1855","0"
"6.6.1","mac","2025-01-07","09:43:06","63d79fcd741f9cfb2f87152f","80_20_cir","23","reward_feedback","0","0","1","1","100","100","20","V/S","Stable","Incongruent","Circle","Circle","Left","Right","Incorrect","1","8","0","367","1077","0"
"6.6.1","mac","2025-01-07","09:43:06","63d79fcd741f9cfb2f87152f","80_20_cir","24","reward_feedback","0","0","1","1","101","101","21","V/S","Stable","Congruent","Circle","Circle","Right","Right","Correct","1","9","0","387","1074","0"
"6.6.1","mac","2025-01-07","09:43:06","63d79fcd741f9cfb2f87152f","80_20_cir","24","punish_feedback","0","0","1","1","102","102","22","V/S","Stable","Congruent","Circle","Circle","Left","Right","Incorrect","-1","8","0","281","1645","0"
"6.6.1","mac","2025-01-07","09:43:06","63d79fcd741f9cfb2f87152f","80_20_cir","24","reward_feedback","0","0","1","1","103","103","23","V/S","Stable","Incongruent","Circle","Circle","Left","Right","Incorrect","1","9","0","303","1711","0"
"6.6.1","mac","2025-01-07","09:43:06","63d79fcd741f9cfb2f87152f","80_20_cir","24","reward_feedback","0","0","1","1","104","104","24","V/S","Stable","Congruent","Circle","Circle","Right","Right","Correct","1","10","0","365","1281","0"
"6.6.1","mac","2025-01-07","09:43:06","63d79fcd741f9cfb2f87152f","80_20_cir","24","reward_feedback","0","0","1","1","105","105","25","V/S","Stable","Congruent","Circle","Circle","Right","Right","Correct","1","11","0","369","1475","0"
"6.6.1","mac","2025-01-07","09:43:06","63d79fcd741f9cfb2f87152f","80_20_cir","25","reward_feedback","0","0","1","1","106","106","26","V/S","Stable","Incongruent","Circle","Circle","Left","Right","Incorrect","1","12","0","242","1748","0"
"6.6.1","mac","2025-01-07","09:43:06","63d79fcd741f9cfb2f87152f","80_20_cir","25","punish_feedback","0","0","1","1","107","107","27","V/S","Stable","Congruent","Circle","Circle","Right","Left","Incorrect","-1","11","0","321","1924","0"
"6.6.1","mac","2025-01-07","09:43:06","63d79fcd741f9cfb2f87152f","80_20_cir","25","reward_feedback","0","0","1","1","108","108","28","V/S","Stable","Congruent","Circle","Circle","Right","Right","Correct","1","12","0","187","1425","0"
"6.6.1","mac","2025-01-07","09:43:06","63d79fcd741f9cfb2f87152f","80_20_cir","25","punish_feedback","0","0","1","1","109","109","29","V/S","Stable","Congruent","Circle","Circle","Right","Left","Incorrect","-1","11","0","392","1234","0"
"6.6.1","mac","2025-01-07","09:43:06","63d79fcd741f9cfb2f87152f","80_20_cir","25","punish_feedback","0","0","1","1","110","110","30","V/S","Stable","Congruent","Circle","Circle","Right","Left","Incorrect","-1","10","0","51","1670","0"
"6.6.1","mac","2025-01-07","09:43:06","63d79fcd741f9cfb2f87152f","80_20_cir","26","reward_feedback","0","0","1","1","111","111","31","V/S","Stable","Congruent","Circle","Circle","Left","Left","Correct","1","11","0","320","1795","0"
"6.6.1","mac","2025-01-07","09:43:06","63d79fcd741f9cfb2f87152f","80_20_cir","26","reward_feedback","0","0","1","1","112","112","32","V/S","Stable","Congruent","Circle","Circle","Left","Left","Correct","1","12","0","271","1837","0"
"6.6.1","mac","2025-01-07","09:43:06","63d79fcd741f9cfb2f87152f","80_20_cir","26","punish_feedback","0","0","1","1","113","113","33","V/S","Stable","Congruent","Circle","Circle","Right","Left","Incorrect","-1","11","0","256","1857","0"
"6.6.1","mac","2025-01-07","09:43:06","63d79fcd741f9cfb2f87152f","80_20_cir","26","punish_feedback","0","0","1","1","114","114","34","V/S","Stable","Congruent","Circle","Circle","Left","Right","Incorrect","-1","10","0","217","1657","0"
"6.6.1","mac","2025-01-07","09:43:06","63d79fcd741f9cfb2f87152f","80_20_cir","26","reward_feedback","0","0","1","1","115","115","35","V/S","Stable","Incongruent","Circle","Circle","Left","Right","Incorrect","1","11","0","515","1093","0"
"6.6.1","mac","2025-01-07","09:43:06","63d79fcd741f9cfb2f87152f","80_20_cir","27","punish_feedback","0","0","1","1","116","116","36","V/S","Stable","Congruent","Circle","Circle","Left","Right","Incorrect","-1","10","0","29","1784","0"
"6.6.1","mac","2025-01-07","09:43:06","63d79fcd741f9cfb2f87152f","80_20_cir","27","reward_feedback","0","0","1","1","117","117","37","V/S","Stable","Congruent","Circle","Circle","Right","Right","Correct","1","11","0","251","1996","0"
"6.6.1","mac","2025-01-07","09:43:06","63d79fcd741f9cfb2f87152f","80_20_cir","27","punish_feedback","0","0","1","1","118","118","38","V/S","Stable","Congruent","Circle","Circle","Left","Right","Incorrect","-1","10","0","463","1169","0"
"6.6.1","mac","2025-01-07","09:43:06","63d79fcd741f9cfb2f87152f","80_20_cir","27","reward_feedback","0","0","1","1","119","119","39","V/S","Stable","Congruent","Circle","Circle","Right","Right","Correct","1","11","0","417","1210","0"
"6.6.1","mac","2025-01-07","09:43:06","63d79fcd741f9cfb2f87152f","80_20_cir","27","punish_feedback","0","0","1","1","120","120","40","V/S","Stable","Incongruent","Circle","Circle","Right","Right","Correct","-1","10","0","408","1753","0"
"6.6.1","mac","2025-01-07","09:43:06","63d79fcd741f9cfb2f87152f","80_20_cir","28","reward_feedback","0","0","1","1","121","121","41","V/S","Stable","Congruent","Circle","Circle","Right","Right","Correct","1","11","0","335","1004","0"
"6.6.1","mac","2025-01-07","09:43:06","63d79fcd741f9cfb2f87152f","80_20_cir","28","reward_feedback","0","0","1","1","122","122","42","V/S","Stable","Incongruent","Circle","Circle","Left","Right","Incorrect","1","12","0","320","1368","0"
"6.6.1","mac","2025-01-07","09:43:06","63d79fcd741f9cfb2f87152f","80_20_cir","28","reward_feedback","0","0","1","1","123","123","43","V/S","Stable","Congruent","Circle","Circle","Right","Right","Correct","1","13","0","421","1308","0"
"6.6.1","mac","2025-01-07","09:43:06","63d79fcd741f9cfb2f87152f","80_20_cir","28","punish_feedback","0","0","1","1","124","124","44","V/S","Stable","Congruent","Circle","Circle","Left","Right","Incorrect","-1","12","0","323","1359","0"
"6.6.1","mac","2025-01-07","09:43:06","63d79fcd741f9cfb2f87152f","80_20_cir","28","reward_feedback","0","0","1","1","125","125","45","V/S","Stable","Congruent","Circle","Circle","Right","Right","Correct","1","13","0","346","1256","0"
"6.6.1","mac","2025-01-07","09:43:06","63d79fcd741f9cfb2f87152f","80_20_cir","29","punish_feedback","0","0","1","1","126","126","46","V/S","Stable","Congruent","Circle","Circle","Left","Right","Incorrect","-1","12","0","696","1262","0"
"6.6.1","mac","2025-01-07","09:43:06","63d79fcd741f9cfb2f87152f","80_20_cir","29","punish_feedback","0","0","1","1","127","127","47","V/S","Stable","Congruent","Circle","Circle","Left","Right","Incorrect","-1","11","0","356","1174","0"
"6.6.1","mac","2025-01-07","09:43:06","63d79fcd741f9cfb2f87152f","80_20_cir","29","reward_feedback","0","0","1","1","128","128","48","V/S","Stable","Congruent","Circle","Circle","Right","Right","Correct","1","12","0","252","1798","0"
"6.6.1","mac","2025-01-07","09:43:06","63d79fcd741f9cfb2f87152f","80_20_cir","29","punish_feedback","0","0","1","1","129","129","49","V/S","Stable","Incongruent","Circle","Circle","Right","Right","Correct","-1","11","0","303","1830","0"
"6.6.1","mac","2025-01-07","09:43:06","63d79fcd741f9cfb2f87152f","80_20_cir","29","reward_feedback","0","0","1","1","130","130","50","V/S","Stable","Congruent","Circle","Circle","Right","Right","Correct","1","12","0","326","1451","0"
"6.6.1","mac","2025-01-07","09:43:06","63d79fcd741f9cfb2f87152f","80_20_cir","30","reward_feedback","0","0","1","1","131","131","51","V/S","Stable","Congruent","Circle","Circle","Right","Right","Correct","1","13","0","254","1662","0"
"6.6.1","mac","2025-01-07","09:43:06","63d79fcd741f9cfb2f87152f","80_20_cir","30","punish_feedback","0","0","1","1","132","132","52","V/S","Stable","Incongruent","Circle","Circle","Right","Right","Correct","-1","12","0","293","1099","0"
"6.6.1","mac","2025-01-07","09:43:06","63d79fcd741f9cfb2f87152f","80_20_cir","30","punish_feedback","0","0","1","1","133","133","53","V/S","Stable","Congruent","Circle","Circle","Left","Right","Incorrect","-1","11","0","1120","1157","0"
"6.6.1","mac","2025-01-07","09:43:06","63d79fcd741f9cfb2f87152f","80_20_cir","30","punish_feedback","0","0","1","1","134","134","54","V/S","Stable","Congruent","Circle","Circle","Left","Right","Incorrect","-1","10","0","221","1124","0"
"6.6.1","mac","2025-01-07","09:43:06","63d79fcd741f9cfb2f87152f","80_20_cir","30","reward_feedback","0","0","1","1","135","135","55","V/S","Stable","Congruent","Circle","Circle","Right","Right","Correct","1","11","0","346","1195","0"
"6.6.1","mac","2025-01-07","09:43:06","63d79fcd741f9cfb2f87152f","80_20_cir","31","reward_feedback","0","0","1","1","136","136","56","V/S","Stable","Congruent","Circle","Circle","Right","Right","Correct","1","12","0","251","1791","0"
"6.6.1","mac","2025-01-07","09:43:06","63d79fcd741f9cfb2f87152f","80_20_cir","31","reward_feedback","0","0","1","1","137","137","57","V/S","Stable","Incongruent","Circle","Circle","Left","Right","Incorrect","1","13","0","306","1098","0"
"6.6.1","mac","2025-01-07","09:43:06","63d79fcd741f9cfb2f87152f","80_20_cir","31","punish_feedback","0","0","1","1","138","138","58","V/S","Stable","Congruent","Circle","Circle","Right","Left","Incorrect","-1","12","0","260","1189","0"
"6.6.1","mac","2025-01-07","09:43:06","63d79fcd741f9cfb2f87152f","80_20_cir","31","reward_feedback","0","0","1","1","139","139","59","V/S","Stable","Congruent","Circle","Circle","Left","Left","Correct","1","13","0","167","1435","0"
"6.6.1","mac","2025-01-07","09:43:06","63d79fcd741f9cfb2f87152f","80_20_cir","31","reward_feedback","0","0","1","1","140","140","60","V/S","Stable","Congruent","Circle","Circle","Left","Left","Correct","1","14","0","468","1614","0"
"6.6.1","mac","2025-01-07","09:43:06","63d79fcd741f9cfb2f87152f","80_20_cir","32","punish_feedback","0","0","1","1","141","141","61","V/S","Stable","Congruent","Circle","Circle","Left","Right","Incorrect","-1","13","0","398","1254","0"
"6.6.1","mac","2025-01-07","09:43:06","63d79fcd741f9cfb2f87152f","80_20_cir","32","reward_feedback","0","0","1","1","142","142","62","V/S","Stable","Congruent","Circle","Circle","Right","Right","Correct","1","14","0","258","1624","0"
"6.6.1","mac","2025-01-07","09:43:06","63d79fcd741f9cfb2f87152f","80_20_cir","32","reward_feedback","0","0","1","1","143","143","63","V/S","Stable","Congruent","Circle","Circle","Right","Right","Correct","1","15","0","239","1811","0"
"6.6.1","mac","2025-01-07","09:43:06","63d79fcd741f9cfb2f87152f","80_20_cir","32","punish_feedback","0","0","1","1","144","144","64","V/S","Stable","Incongruent","Circle","Circle","Right","Right","Correct","-1","14","0","275","1623","0"
"6.6.1","mac","2025-01-07","09:43:06","63d79fcd741f9cfb2f87152f","80_20_cir","32","punish_feedback","0","0","1","1","145","145","65","V/S","Stable","Congruent","Circle","Circle","Left","Right","Incorrect","-1","13","0","274","1278","0"
"6.6.1","mac","2025-01-07","09:43:06","63d79fcd741f9cfb2f87152f","80_20_cir","33","punish_feedback","0","0","1","1","146","146","66","V/S","Stable","Incongruent","Circle","Circle","Right","Right","Correct","-1","12","0","401","1111","0"
"6.6.1","mac","2025-01-07","09:43:06","63d79fcd741f9cfb2f87152f","80_20_cir","33","reward_feedback","0","0","1","1","147","147","67","V/S","Stable","Congruent","Circle","Circle","Right","Right","Correct","1","13","0","103","1802","0"
"6.6.1","mac","2025-01-07","09:43:06","63d79fcd741f9cfb2f87152f","80_20_cir","33","punish_feedback","0","0","1","1","148","148","68","V/S","Stable","Congruent","Circle","Circle","Left","Right","Incorrect","-1","12","0","387","1133","0"
"6.6.1","mac","2025-01-07","09:43:06","63d79fcd741f9cfb2f87152f","80_20_cir","33","punish_feedback","0","0","1","1","149","149","69","V/S","Stable","Congruent","Circle","Circle","Left","Right","Incorrect","-1","11","0","75","1739","0"
"6.6.1","mac","2025-01-07","09:43:06","63d79fcd741f9cfb2f87152f","80_20_cir","33","punish_feedback","0","0","1","1","150","150","70","V/S","Stable","Congruent","Circle","Circle","Left","Right","Incorrect","-1","10","0","290","1737","0"
"6.6.1","mac","2025-01-07","09:43:06","63d79fcd741f9cfb2f87152f","80_20_cir","34","reward_feedback","0","0","1","1","151","151","71","V/S","Stable","Congruent","Circle","Circle","Right","Right","Correct","1","11","0","478","1352","0"
"6.6.1","mac","2025-01-07","09:43:06","63d79fcd741f9cfb2f87152f","80_20_cir","34","reward_feedback","0","0","1","1","152","152","72","V/S","Stable","Incongruent","Circle","Circle","Left","Right","Incorrect","1","12","0","284","1926","0"
"6.6.1","mac","2025-01-07","09:43:06","63d79fcd741f9cfb2f87152f","80_20_cir","34","punish_feedback","0","0","1","1","153","153","73","V/S","Stable","Congruent","Circle","Circle","Left","Right","Incorrect","-1","11","0","575","1013","0"
"6.6.1","mac","2025-01-07","09:43:06","63d79fcd741f9cfb2f87152f","80_20_cir","34","reward_feedback","0","0","1","1","154","154","74","V/S","Stable","Congruent","Circle","Circle","Right","Right","Correct","1","12","0","230","1995","0"
"6.6.1","mac","2025-01-07","09:43:06","63d79fcd741f9cfb2f87152f","80_20_cir","34","punish_feedback","0","0","1","1","155","155","75","V/S","Stable","Congruent","Circle","Circle","Left","Right","Incorrect","-1","11","0","289","1445","0"
"6.6.1","mac","2025-01-07","09:43:06","63d79fcd741f9cfb2f87152f","80_20_cir","35","punish_feedback","0","0","1","1","156","156","76","V/S","Stable","Congruent","Circle","Circle","Left","Right","Incorrect","-1","10","0","352","1112","0"
"6.6.1","mac","2025-01-07","09:43:06","63d79fcd741f9cfb2f87152f","80_20_cir","35","reward_feedback","0","0","1","1","157","157","77","V/S","Stable","Incongruent","Circle","Circle","Left","Right","Incorrect","1","11","0","243","1303","0"
"6.6.1","mac","2025-01-07","09:43:06","63d79fcd741f9cfb2f87152f","80_20_cir","35","reward_feedback","0","0","1","1","158","158","78","V/S","Stable","Congruent","Circle","Circle","Right","Right","Correct","1","12","0","153","1980","0"
"6.6.1","mac","2025-01-07","09:43:06","63d79fcd741f9cfb2f87152f","80_20_cir","35","reward_feedback","0","0","1","1","159","159","79","V/S","Stable","Congruent","Circle","Circle","Right","Right","Correct","1","13","0","319","1826","0"
"6.6.1","mac","2025-01-07","09:43:06","63d79fcd741f9cfb2f87152f","80_20_cir","35","reward_feedback","0","0","1","1","160","160","80","V/S","Stable","Congruent","Circle","Circle","Right","Right","Correct","1","14","0","347","1361","0"
"6.6.1","mac","2025-01-07","09:43:06","63d79fcd741f9cfb2f87152f","DebriefSelection","38","DebriefSelection","GeneralDebriefButton","1","1","1","160","160","80","V/S","Stable","Congruent","Circle","Circle","Right","Right","Correct","1","14","0","347","1361","0"
"6.6.1","mac","2025-01-07","09:43:06","63d79fcd741f9cfb2f87152f","DebriefSelection","38","GeneralDebrieftitle","Continue","1","1","1","160","160","80","V/S","Stable","Congruent","Circle","Circle","Right","Right","Correct","1","14","0","347","1361","0"
"6.6.1","mac","2025-01-07","09:43:06","63d79fcd741f9cfb2f87152f","DebriefSelection","38","GeneralDebrief1","Continue","1","1","1","160","160","80","V/S","Stable","Congruent","Circle","Circle","Right","Right","Correct","1","14","0","347","1361","0"
"6.6.1","mac","2025-01-07","09:43:06","63d79fcd741f9cfb2f87152f","DebriefSelection","38","GeneralDebrief2","Continue","1","1","1","160","160","80","V/S","Stable","Congruent","Circle","Circle","Right","Right","Correct","1","14","0","347","1361","0"
"6.6.1","mac","2025-01-07","09:43:06","63d79fcd741f9cfb2f87152f","DebriefSelection","38","GeneralDebrief3","Continue","1","1","1","160","160","80","V/S","Stable","Congruent","Circle","Circle","Right","Right","Correct","1","14","0","347","1361","0"
"6.6.1","mac","2025-01-07","09:43:06","63d79fcd741f9cfb2f87152f","DebriefSelection","38","Submission","SubmissionButton","1","1","1","160","160","80","V/S","Stable","Congruent","Circle","Circle","Right","Right","Correct","1","14","0","347","1361","1"
"6.6.3","win","2025-01-07","10:43:58","65f9ad9041f0b16004a4e76d","Consent","1","Consenttitle","","1","0","0","0","0","0","V/S","Volatile","","Circle","0","","","","0","0","0","0","0","0"
"6.6.3","win","2025-01-07","10:43:58","65f9ad9041f0b16004a4e76d","Consent","1","consent_1option1","Agree","1","0","0","0","0","0","V/S","Volatile","","Circle","0","","","","0","0","0","0","0","0"
"6.6.3","win","2025-01-07","10:43:58","65f9ad9041f0b16004a4e76d","Consent","1","consent_2option1","Agree","1","0","0","0","0","0","V/S","Volatile","","Circle","0","","","","0","0","0","0","0","0"
"6.6.3","win","2025-01-07","10:43:58","65f9ad9041f0b16004a4e76d","Consent","1","consent_3option1","Agree","1","0","0","0","0","0","V/S","Volatile","","Circle","0","","","","0","0","0","0","0","0"
"6.6.3","win","2025-01-07","10:43:58","65f9ad9041f0b16004a4e76d","Consent","1","consent_4option1","Agree","1","0","0","0","0","0","V/S","Volatile","","Circle","0","","","","0","0","0","0","0","0"
"6.6.3","win","2025-01-07","10:43:58","65f9ad9041f0b16004a4e76d","Consent","1","consent_5option1","Agree","1","0","0","0","0","0","V/S","Volatile","","Circle","0","","","","0","0","0","0","0","0"
"6.6.3","win","2025-01-07","10:43:58","65f9ad9041f0b16004a4e76d","Consent","1","consent_6option1","Agree","1","0","0","0","0","0","V/S","Volatile","","Circle","0","","","","0","0","0","0","0","0"
"6.6.3","win","2025-01-07","10:43:58","65f9ad9041f0b16004a4e76d","Consent","1","consent_7option1","Agree","1","0","0","0","0","0","V/S","Volatile","","Circle","0","","","","0","0","0","0","0","0"
"6.6.3","win","2025-01-07","10:43:58","65f9ad9041f0b16004a4e76d","Consent","1","consent_8option1","Agree","1","0","0","0","0","0","V/S","Volatile","","Circle","0","","","","0","0","0","0","0","0"
"6.6.3","win","2025-01-07","10:43:58","65f9ad9041f0b16004a4e76d","Consent","1","consent_9option1","Agree","1","0","0","0","0","0","V/S","Volatile","","Circle","0","","","","0","0","0","0","0","0"
"6.6.3","win","2025-01-07","10:43:58","65f9ad9041f0b16004a4e76d","Consent","1","consent_10option1","Agree","1","0","0","0","0","0","V/S","Volatile","","Circle","0","","","","0","0","0","0","0","0"
"6.6.3","win","2025-01-07","10:43:58","65f9ad9041f0b16004a4e76d","Consent","1","consent_11option1","Agree","1","0","0","0","0","0","V/S","Volatile","","Circle","0","","","","0","0","0","0","0","0"
"6.6.3","win","2025-01-07","10:43:58","65f9ad9041f0b16004a4e76d","Consent","1","consent_12option1","Agree","1","0","0","0","0","0","V/S","Volatile","","Circle","0","","","","0","0","0","0","0","0"
"6.6.3","win","2025-01-07","10:43:58","65f9ad9041f0b16004a4e76d","80_20_cir","4","reward_feedback","0","0","1","1","1","1","1","V/S","Volatile","Incongruent","Circle","Circle","Right","Left","Incorrect","1","1","1","1812","1304","0"
"6.6.3","win","2025-01-07","10:43:58","65f9ad9041f0b16004a4e76d","80_20_cir","4","punish_feedback","0","0","1","1","2","2","2","V/S","Volatile","Congruent","Circle","Circle","Left","Right","Incorrect","-1","0","2","803","1359","0"
"6.6.3","win","2025-01-07","10:43:58","65f9ad9041f0b16004a4e76d","80_20_cir","4","punish_feedback","0","0","1","1","3","3","3","V/S","Volatile","Congruent","Circle","Circle","Left","Right","Incorrect","-1","-1","3","418","1375","0"
"6.6.3","win","2025-01-07","10:43:58","65f9ad9041f0b16004a4e76d","80_20_cir","4","punish_feedback","0","0","1","1","4","4","4","V/S","Volatile","Congruent","Circle","Circle","Right","Left","Incorrect","-1","-2","4","745","1403","0"
"6.6.3","win","2025-01-07","10:43:58","65f9ad9041f0b16004a4e76d","80_20_cir","4","reward_feedback","0","0","1","1","5","5","5","V/S","Volatile","Congruent","Circle","Circle","Right","Right","Correct","1","-1","5","553","1871","0"
"6.6.3","win","2025-01-07","10:43:58","65f9ad9041f0b16004a4e76d","80_20_cir","5","reward_feedback","0","0","1","1","6","6","6","V/S","Volatile","Congruent","Circle","Circle","Right","Right","Correct","1","0","6","550","1569","0"
"6.6.3","win","2025-01-07","10:43:58","65f9ad9041f0b16004a4e76d","80_20_cir","5","reward_feedback","0","0","1","1","7","7","7","V/S","Volatile","Congruent","Circle","Circle","Right","Right","Correct","1","1","7","435","1412","0"
"6.6.3","win","2025-01-07","10:43:58","65f9ad9041f0b16004a4e76d","80_20_cir","5","punish_feedback","0","0","1","1","8","8","8","V/S","Volatile","Incongruent","Circle","Circle","Left","Left","Correct","-1","0","8","634","1803","0"
"6.6.3","win","2025-01-07","10:43:58","65f9ad9041f0b16004a4e76d","80_20_cir","5","reward_feedback","0","0","1","1","9","9","9","V/S","Volatile","Congruent","Circle","Circle","Right","Right","Correct","1","1","9","455","1015","0"
"6.6.3","win","2025-01-07","10:43:58","65f9ad9041f0b16004a4e76d","80_20_cir","5","reward_feedback","0","0","1","1","10","10","10","V/S","Volatile","Congruent","Circle","Circle","Right","Right","Correct","1","2","10","444","1780","0"
"6.6.3","win","2025-01-07","10:43:58","65f9ad9041f0b16004a4e76d","80_20_cir","6","reward_feedback","0","0","1","1","11","11","11","V/S","Volatile","Incongruent","Circle","Circle","Left","Right","Incorrect","1","3","11","539","1683","0"
"6.6.3","win","2025-01-07","10:43:58","65f9ad9041f0b16004a4e76d","80_20_cir","6","punish_feedback","0","0","1","1","12","12","12","V/S","Volatile","Congruent","Circle","Circle","Left","Right","Incorrect","-1","2","12","644","1342","0"
"6.6.3","win","2025-01-07","10:43:58","65f9ad9041f0b16004a4e76d","80_20_cir","6","reward_feedback","0","0","1","1","13","13","13","V/S","Volatile","Congruent","Circle","Circle","Right","Right","Correct","1","3","13","580","1814","0"
"6.6.3","win","2025-01-07","10:43:58","65f9ad9041f0b16004a4e76d","80_20_cir","6","punish_feedback","0","0","1","1","14","14","14","V/S","Volatile","Congruent","Circle","Circle","Left","Right","Incorrect","-1","2","14","633","1121","0"
"6.6.3","win","2025-01-07","10:43:58","65f9ad9041f0b16004a4e76d","80_20_cir","6","punish_feedback","0","0","1","1","15","15","15","V/S","Volatile","Congruent","Circle","Circle","Left","Right","Incorrect","-1","1","15","452","1742","0"
"6.6.3","win","2025-01-07","10:43:58","65f9ad9041f0b16004a4e76d","80_20_cir","7","reward_feedback","0","0","1","1","16","16","16","V/S","Volatile","Congruent","Circle","Circle","Right","Right","Correct","1","2","16","475","1938","0"
"6.6.3","win","2025-01-07","10:43:58","65f9ad9041f0b16004a4e76d","80_20_cir","7","reward_feedback","0","0","1","1","17","17","17","V/S","Volatile","Congruent","Circle","Circle","Right","Right","Correct","1","3","17","279","1113","0"
"6.6.3","win","2025-01-07","10:43:58","65f9ad9041f0b16004a4e76d","80_20_cir","7","reward_feedback","0","0","1","1","18","18","18","V/S","Volatile","Incongruent","Circle","Circle","Right","Left","Incorrect","1","4","18","424","1659","0"
"6.6.3","win","2025-01-07","10:43:58","65f9ad9041f0b16004a4e76d","80_20_cir","7","reward_feedback","0","0","1","1","19","19","19","V/S","Volatile","Congruent","Circle","Circle","Left","Left","Correct","1","5","19","906","1204","0"
"6.6.3","win","2025-01-07","10:43:58","65f9ad9041f0b16004a4e76d","80_20_cir","7","reward_feedback","0","0","1","1","20","20","20","V/S","Volatile","Congruent","Circle","Circle","Right","Right","Correct","1","6","20","496","1434","0"
"6.6.3","win","2025-01-07","10:43:58","65f9ad9041f0b16004a4e76d","80_20_tri","8","punish_feedback","0","0","1","1","21","21","21","V/S","Volatile","Congruent","Circle","Triangle","Right","Left","Incorrect","-1","5","1","667","1087","0"
"6.6.3","win","2025-01-07","10:43:58","65f9ad9041f0b16004a4e76d","80_20_tri","8","reward_feedback","0","0","1","1","22","22","22","V/S","Volatile","Congruent","Circle","Triangle","Right","Right","Correct","1","6","2","520","1406","0"
"6.6.3","win","2025-01-07","10:43:58","65f9ad9041f0b16004a4e76d","80_20_tri","8","punish_feedback","0","0","1","1","23","23","23","V/S","Volatile","Congruent","Circle","Triangle","Left","Right","Incorrect","-1","5","3","494","1237","0"
"6.6.3","win","2025-01-07","10:43:58","65f9ad9041f0b16004a4e76d","80_20_tri","8","reward_feedback","0","0","1","1","24","24","24","V/S","Volatile","Incongruent","Circle","Triangle","Left","Right","Incorrect","1","6","4","444","1267","0"
"6.6.3","win","2025-01-07","10:43:58","65f9ad9041f0b16004a4e76d","80_20_tri","8","reward_feedback","0","0","1","1","25","25","25","V/S","Volatile","Congruent","Circle","Triangle","Right","Right","Correct","1","7","5","511","1718","0"
"6.6.3","win","2025-01-07","10:43:58","65f9ad9041f0b16004a4e76d","80_20_tri","9","punish_feedback","0","0","1","1","26","26","26","V/S","Volatile","Congruent","Circle","Triangle","Left","Right","Incorrect","-1","6","6","483","1858","0"
"6.6.3","win","2025-01-07","10:43:58","65f9ad9041f0b16004a4e76d","80_20_tri","9","reward_feedback","0","0","1","1","27","27","27","V/S","Volatile","Congruent","Circle","Triangle","Left","Left","Correct","1","7","7","274","1967","0"
"6.6.3","win","2025-01-07","10:43:58","65f9ad9041f0b16004a4e76d","80_20_tri","9","punish_feedback","0","0","1","1","28","28","28","V/S","Volatile","Congruent","Circle","Triangle","Right","Left","Incorrect","-1","6","8","674","1973","0"
"6.6.3","win","2025-01-07","10:43:58","65f9ad9041f0b16004a4e76d","80_20_tri","9","punish_feedback","0","0","1","1","29","29","29","V/S","Volatile","Incongruent","Circle","Triangle","Right","Right","Correct","-1","5","9","564","1161","0"
"6.6.3","win","2025-01-07","10:43:58","65f9ad9041f0b16004a4e76d","80_20_tri","9","punish_feedback","0","0","1","1","30","30","30","V/S","Volatile","Congruent","Circle","Triangle","Right","Left","Incorrect","-1","4","10","477","1324","0"
"6.6.3","win","2025-01-07","10:43:58","65f9ad9041f0b16004a4e76d","80_20_tri","10","punish_feedback","0","0","1","1","31","31","31","V/S","Volatile","Congruent","Circle","Triangle","Left","Right","Incorrect","-1","3","11","730","1646","0"
"6.6.3","win","2025-01-07","10:43:58","65f9ad9041f0b16004a4e76d","80_20_tri","10","reward_feedback","0","0","1","1","32","32","32","V/S","Volatile","Congruent","Circle","Triangle","Left","Left","Correct","1","4","12","626","1678","0"
"6.6.3","win","2025-01-07","10:43:58","65f9ad9041f0b16004a4e76d","80_20_tri","10","reward_feedback","0","0","1","1","33","33","33","V/S","Volatile","Incongruent","Circle","Triangle","Right","Left","Incorrect","1","5","13","643","1360","0"
"6.6.3","win","2025-01-07","10:43:58","65f9ad9041f0b16004a4e76d","80_20_tri","10","punish_feedback","0","0","1","1","34","34","34","V/S","Volatile","Congruent","Circle","Triangle","Left","Right","Incorrect","-1","4","14","576","1902","0"
"6.6.3","win","2025-01-07","10:43:58","65f9ad9041f0b16004a4e76d","80_20_tri","10","reward_feedback","0","0","1","1","35","35","35","V/S","Volatile","Congruent","Circle","Triangle","Right","Right","Correct","1","5","15","332","1487","0"
"6.6.3","win","2025-01-07","10:43:58","65f9ad9041f0b16004a4e76d","80_20_tri","11","reward_feedback","0","0","1","1","36","36","36","V/S","Volatile","Congruent","Circle","Triangle","Right","Right","Correct","1","6","16","422","1337","0"
