"build","computer.platform","date","time","subject","blockcode","blocknum","trialcode","response","correct","consent","ProlificID","trialnum","trialcount","blockCount","blockorder","blockLabel","trialType","ruleStart","correctChoice","correctChoicePosition","responseSide","correctResponse","feedback","totalPoints","phaseCount","RTs","fixjit","submission"
"6.6.1","win","2024-12-06","11:29:09","5f3e8437fcbaca0b24f7e4e9","Consent","1","Consenttitle","","1","0","0","0","0","0","V/S","Volatile","","Triangle","0","","","","0","0","0","0","0","0"
"6.6.1","win","2024-12-06","11:29:09","5f3e8437fcbaca0b24f7e4e9","Consent","1","consent_1option1","Agree","1","0","0","0","0","0","V/S","Volatile","","Triangle","0","","","","0","0","0","0","0","0"
"6.6.1","win","2024-12-06","11:29:09","5f3e8437fcbaca0b24f7e4e9","Consent","1","consent_2option1","Agree","1","0","0","0","0","0","V/S","Volatile","","Triangle","0","","","","0","0","0","0","0","0"
"6.6.1","win","2024-12-06","11:29:09","5f3e8437fcbaca0b24f7e4e9","80_20_tri","4","fixation_congruent_feedback_triangle","0","0","0","0","1","0","0","V/S","Volatile","Congruent","Triangle","Triangle","Left","","","0","0","1","0","1875","0"
"6.6.1","win","2024-12-06","11:29:09","5f3e8437fcbaca0b24f7e4e9","80_20_tri","4","congruent_feedback_triangle","0","0","0","0","1","1","0","V/S","Volatile","Congruent","Triangle","Triangle","Left","NR","Incorrect","0","0","1","4000","1875","0"
"6.6.1","win","2024-12-06","11:29:09","5f3e8437fcbaca0b24f7e4e9","80_20_tri","4","punish_feedback","0","0","0","0","1","1","1","V/S","Volatile","Congruent","Triangle","Triangle","Left","NR","Incorrect","-1","-1","1","4000","1875","0"
"6.6.1","win","2024-12-06","11:29:09","5f3e8437fcbaca0b24f7e4e9","80_20_tri","4","fixation_congruent_feedback_triangle","0","0","0","0","2","1","1","V/S","Volatile","Congruent","Triangle","Triangle","Right","NR","Incorrect","0","-1","2","4000","1258","0"
"6.6.1","win","2024-12-06","11:29:09","5f3e8437fcbaca0b24f7e4e9","80_20_tri","4","congruent_feedback_triangle","18","0","0","0","2","2","1","V/S","Volatile","Congruent","Triangle","Triangle","Right","Left","Incorrect","0","-1","2","194","1258","0"
"6.6.1","win","2024-12-06","11:29:09","5f3e8437fcbaca0b24f7e4e9","80_20_tri","4","punish_feedback","0","0","0","0","2","2","2","V/S","Volatile","Congruent","Triangle","Triangle","Right","Left","Incorrect","-1","-2","2","194","1258","0"
"6.6.1","win","2024-12-06","11:29:09","5f3e8437fcbaca0b24f7e4e9","80_20_tri","4","fixation_congruent_feedback_triangle","0","0","0","0","3","2","2","V/S","Volatile","Congruent","Triangle","Triangle","Left","Left","Incorrect","0","-2","3","194","1214","0"
"6.6.1","win","2024-12-06","11:29:09","5f3e8437fcbaca0b24f7e4e9","80_20_tri","4","congruent_feedback_triangle","23","0","0","0","3","3","2","V/S","Volatile","Congruent","Triangle","Triangle","Left","Right","Incorrect","0","-2","3","286","1214","0"
"6.6.1","win","2024-12-06","11:29:09","5f3e8437fcbaca0b24f7e4e9","80_20_tri","4","punish_feedback","0","0","0","0","3","3","3","V/S","Volatile","Congruent","Triangle","Triangle","Left","Right","Incorrect","-1","-3","3","286","1214","0"
"6.6.1","win","2024-12-06","11:29:09","5f3e8437fcbaca0b24f7e4e9","80_20_tri","4","fixation_incongruent_feedback_triangle","0","0","0","0","4","3","3","V/S","Volatile","Incongruent","Triangle","Triangle","Right","Right","Incorrect","0","-3","4","286","1687","0"
"6.6.1","win","2024-12-06","11:29:09","5f3e8437fcbaca0b24f7e4e9","80_20_tri","4","incongruent_feedback_triangle","18","0","0","0","4","4","3","V/S","Volatile","Incongruent","Triangle","Triangle","Right","Left","Incorrect","0","-3","4","230","1687","0"
"6.6.1","win","2024-12-06","11:29:09","5f3e8437fcbaca0b24f7e4e9","80_20_tri","4","reward_feedback","0","0","0","0","4","4","4","V/S","Volatile","Incongruent","Triangle","Triangle","Right","Left","Incorrect","1","-2","4","230","1687","0"
"6.6.1","win","2024-12-06","11:29:09","5f3e8437fcbaca0b24f7e4e9","80_20_tri","4","fixation_congruent_feedback_triangle","0","0","0","0","5","4","4","V/S","Volatile","Congruent","Triangle","Triangle","Right","Left","Incorrect","0","-2","5","230","1329","0"
"6.6.1","win","2024-12-06","11:29:09","5f3e8437fcbaca0b24f7e4e9","80_20_tri","4","congruent_feedback_triangle","23","1","0","0","5","5","4","V/S","Volatile","Congruent","Triangle","Triangle","Right","Right","Correct","0","-2","5","238","1329","0"
"6.6.1","win","2024-12-06","11:29:09","5f3e8437fcbaca0b24f7e4e9","80_20_tri","4","reward_feedback","0","0","0","0","5","5","5","V/S","Volatile","Congruent","Triangle","Triangle","Right","Right","Correct","1","-1","5","238","1329","0"
"6.6.1","win","2024-12-06","11:29:09","5f3e8437fcbaca0b24f7e4e9","80_20_tri","5","fixation_incongruent_feedback_triangle","0","0","0","0","6","5","5","V/S","Volatile","Incongruent","Triangle","Triangle","Left","Right","Correct","0","-1","6","238","1218","0"
"6.6.1","win","2024-12-06","11:29:09","5f3e8437fcbaca0b24f7e4e9","80_20_tri","5","incongruent_feedback_triangle","23","0","0","0","6","6","5","V/S","Volatile","Incongruent","Triangle","Triangle","Left","Right","Incorrect","0","-1","6","152","1218","0"
"6.6.1","win","2024-12-06","11:29:09","5f3e8437fcbaca0b24f7e4e9","80_20_tri","5","reward_feedback","0","0","0","0","6","6","6","V/S","Volatile","Incongruent","Triangle","Triangle","Left","Right","Incorrect","1","0","6","152","1218","0"
"6.6.1","win","2024-12-06","11:29:09","5f3e8437fcbaca0b24f7e4e9","80_20_tri","5","fixation_congruent_feedback_triangle","0","0","0","0","7","6","6","V/S","Volatile","Congruent","Triangle","Triangle","Right","Right","Incorrect","0","0","7","152","1191","0"
"6.6.1","win","2024-12-06","11:29:09","5f3e8437fcbaca0b24f7e4e9","80_20_tri","5","congruent_feedback_triangle","23","1","0","0","7","7","6","V/S","Volatile","Congruent","Triangle","Triangle","Right","Right","Correct","0","0","7","137","1191","0"
"6.6.1","win","2024-12-06","11:29:09","5f3e8437fcbaca0b24f7e4e9","80_20_tri","5","reward_feedback","0","0","0","0","7","7","7","V/S","Volatile","Congruent","Triangle","Triangle","Right","Right","Correct","1","1","7","137","1191","0"
"6.6.1","win","2024-12-06","11:29:09","5f3e8437fcbaca0b24f7e4e9","80_20_tri","5","fixation_congruent_feedback_triangle","0","0","0","0","8","7","7","V/S","Volatile","Congruent","Triangle","Triangle","Left","Right","Correct","0","1","8","137","1387","0"
"6.6.1","win","2024-12-06","11:29:09","5f3e8437fcbaca0b24f7e4e9","80_20_tri","5","congruent_feedback_triangle","23","0","0","0","8","8","7","V/S","Volatile","Congruent","Triangle","Triangle","Left","Right","Incorrect","0","1","8","410","1387","0"
"6.6.1","win","2024-12-06","11:29:09","5f3e8437fcbaca0b24f7e4e9","80_20_tri","5","punish_feedback","0","0","0","0","8","8","8","V/S","Volatile","Congruent","Triangle","Triangle","Left","Right","Incorrect","-1","0","8","410","1387","0"
"6.6.1","win","2024-12-06","11:29:09","5f3e8437fcbaca0b24f7e4e9","80_20_tri","5","fixation_congruent_feedback_triangle","0","0","0","0","9","8","8","V/S","Volatile","Congruent","Triangle","Triangle","Right","Right","Incorrect","0","0","9","410","1726","0"
"6.6.1","win","2024-12-06","11:29:09","5f3e8437fcbaca0b24f7e4e9","80_20_tri","5","congruent_feedback_triangle","18","0","0","0","9","9","8","V/S","Volatile","Congruent","Triangle","Triangle","Right","Left","Incorrect","0","0","9","451","1726","0"
"6.6.1","win","2024-12-06","11:29:09","5f3e8437fcbaca0b24f7e4e9","80_20_tri","5","punish_feedback","0","0","0","0","9","9","9","V/S","Volatile","Congruent","Triangle","Triangle","Right","Left","Incorrect","-1","-1","9","451","1726","0"
"6.6.1","win","2024-12-06","11:29:09","5f3e8437fcbaca0b24f7e4e9","80_20_tri","5","fixation_congruent_feedback_triangle","0","0","0","0","10","9","9","V/S","Volatile","Congruent","Triangle","Triangle","Right","Left","Incorrect","0","-1","10","451","1870","0"
"6.6.1","win","2024-12-06","11:29:09","5f3e8437fcbaca0b24f7e4e9","80_20_tri","5","congruent_feedback_triangle","23","1","0","0","10","10","9","V/S","Volatile","Congruent","Triangle","Triangle","Right","Right","Correct","0","-1","10","893","1870","0"
"6.6.1","win","2024-12-06","11:29:09","5f3e8437fcbaca0b24f7e4e9","80_20_tri","5","reward_feedback","0","0","0","0","10","10","10","V/S","Volatile","Congruent","Triangle","Triangle","Right","Right","Correct","1","0","10","893","1870","0"
"6.6.1","win","2024-12-06","11:29:09","5f3e8437fcbaca0b24f7e4e9","80_20_tri","6","fixation_congruent_feedback_triangle","0","0","0","0","11","10","10","V/S","Volatile","Congruent","Triangle","Triangle","Right","Right","Correct","0","0","11","893","1603","0"
"6.6.1","win","2024-12-06","11:29:09","5f3e8437fcbaca0b24f7e4e9","80_20_tri","6","congruent_feedback_triangle","23","1","0","0","11","11","10","V/S","Volatile","Congruent","Triangle","Triangle","Right","Right","Correct","0","0","11","23","1603","0"
"6.6.1","win","2024-12-06","11:29:09","5f3e8437fcbaca0b24f7e4e9","80_20_tri","6","reward_feedback","0","0","0","0","11","11","11","V/S","Volatile","Congruent","Triangle","Triangle","Right","Right","Correct","1","1","11","23","1603","0"
"6.6.1","win","2024-12-06","11:29:09","5f3e8437fcbaca0b24f7e4e9","80_20_tri","6","fixation_congruent_feedback_triangle","0","0","0","0","12","11","11","V/S","Volatile","Congruent","Triangle","Triangle","Right","Right","Correct","0","1","12","23","1289","0"
"6.6.1","win","2024-12-06","11:29:09","5f3e8437fcbaca0b24f7e4e9","80_20_tri","6","congruent_feedback_triangle","0","0","0","0","12","12","11","V/S","Volatile","Congruent","Triangle","Triangle","Right","NR","Incorrect","0","1","12","4000","1289","0"
"6.6.1","win","2024-12-06","11:29:09","5f3e8437fcbaca0b24f7e4e9","80_20_tri","6","punish_feedback","0","0","0","0","12","12","12","V/S","Volatile","Congruent","Triangle","Triangle","Right","NR","Incorrect","-1","0","12","4000","1289","0"
"6.6.1","win","2024-12-06","11:29:09","5f3e8437fcbaca0b24f7e4e9","80_20_tri","6","fixation_congruent_feedback_triangle","0","0","0","0","13","12","12","V/S","Volatile","Congruent","Triangle","Triangle","Right","NR","Incorrect","0","0","13","4000","1423","0"
"6.6.1","win","2024-12-06","11:29:09","5f3e8437fcbaca0b24f7e4e9","80_20_tri","6","congruent_feedback_triangle","18","0","0","0","13","13","12","V/S","Volatile","Congruent","Triangle","Triangle","Right","Left","Incorrect","0","0","13","1629","1423","0"
"6.6.1","win","2024-12-06","11:29:09","5f3e8437fcbaca0b24f7e4e9","80_20_tri","6","punish_feedback","0","0","0","0","13","13","13","V/S","Volatile","Congruent","Triangle","Triangle","Right","Left","Incorrect","-1","-1","13","1629","1423","0"
"6.6.1","win","2024-12-06","11:29:09","5f3e8437fcbaca0b24f7e4e9","80_20_tri","6","fixation_congruent_feedback_triangle","0","0","0","0","14","13","13","V/S","Volatile","Congruent","Triangle","Triangle","Left","Left","Incorrect","0","-1","14","1629","1081","0"
"6.6.1","win","2024-12-06","11:29:09","5f3e8437fcbaca0b24f7e4e9","80_20_tri","6","congruent_feedback_triangle","23","0","0","0","14","14","13","V/S","Volatile","Congruent","Triangle","Triangle","Left","Right","Incorrect","0","-1","14","174","1081","0"
"6.6.1","win","2024-12-06","11:29:09","5f3e8437fcbaca0b24f7e4e9","80_20_tri","6","punish_feedback","0","0","0","0","14","14","14","V/S","Volatile","Congruent","Triangle","Triangle","Left","Right","Incorrect","-1","-2","14","174","1081","0"
"6.6.1","win","2024-12-06","11:29:09","5f3e8437fcbaca0b24f7e4e9","80_20_tri","6","fixation_incongruent_feedback_triangle","0","0","0","0","15","14","14","V/S","Volatile","Incongruent","Triangle","Triangle","Right","Right","Incorrect","0","-2","15","174","1793","0"
"6.6.1","win","2024-12-06","11:29:09","5f3e8437fcbaca0b24f7e4e9","80_20_tri","6","incongruent_feedback_triangle","23","1","0","0","15","15","14","V/S","Volatile","Incongruent","Triangle","Triangle","Right","Right","Correct","0","-2","15","278","1793","0"
"6.6.1","win","2024-12-06","11:29:09","5f3e8437fcbaca0b24f7e4e9","80_20_tri","6","punish_feedback","0","0","0","0","15","15","15","V/S","Volatile","Incongruent","Triangle","Triangle","Right","Right","Correct","-1","-3","15","278","1793","0"
"6.6.1","win","2024-12-06","11:29:09","5f3e8437fcbaca0b24f7e4e9","80_20_tri","7","fixation_incongruent_feedback_triangle","0","0","0","0","16","15","15","V/S","Volatile","Incongruent","Triangle","Triangle","Right","Right","Correct","0","-3","16","278","1984","0"
"6.6.1","win","2024-12-06","11:29:09","5f3e8437fcbaca0b24f7e4e9","80_20_tri","7","incongruent_feedback_triangle","18","0","0","0","16","16","15","V/S","Volatile","Incongruent","Triangle","Triangle","Right","Left","Incorrect","0","-3","16","336","1984","0"
"6.6.1","win","2024-12-06","11:29:09","5f3e8437fcbaca0b24f7e4e9","80_20_tri","7","reward_feedback","0","0","0","0","16","16","16","V/S","Volatile","Incongruent","Triangle","Triangle","Right","Left","Incorrect","1","-2","16","336","1984","0"
"6.6.1","win","2024-12-06","11:29:09","5f3e8437fcbaca0b24f7e4e9","80_20_tri","7","fixation_congruent_feedback_triangle","0","0","0","0","17","16","16","V/S","Volatile","Congruent","Triangle","Triangle","Left","Left","Incorrect","0","-2","17","336","1950","0"
"6.6.1","win","2024-12-06","11:29:09","5f3e8437fcbaca0b24f7e4e9","80_20_tri","7","congruent_feedback_triangle","23","0","0","0","17","17","16","V/S","Volatile","Congruent","Triangle","Triangle","Left","Right","Incorrect","0","-2","17","506","1950","0"
"6.6.1","win","2024-12-06","11:29:09","5f3e8437fcbaca0b24f7e4e9","80_20_tri","7","punish_feedback","0","0","0","0","17","17","17","V/S","Volatile","Congruent","Triangle","Triangle","Left","Right","Incorrect","-1","-3","17","506","1950","0"
"6.6.1","win","2024-12-06","11:29:09","5f3e8437fcbaca0b24f7e4e9","80_20_tri","7","fixation_congruent_feedback_triangle","0","0","0","0","18","17","17","V/S","Volatile","Congruent","Triangle","Triangle","Left","Right","Incorrect","0","-3","18","506","1875","0"
"6.6.1","win","2024-12-06","11:29:09","5f3e8437fcbaca0b24f7e4e9","80_20_tri","7","congruent_feedback_triangle","18","1","0","0","18","18","17","V/S","Volatile","Congruent","Triangle","Triangle","Left","Left","Correct","0","-3","18","290","1875","0"
"6.6.1","win","2024-12-06","11:29:09","5f3e8437fcbaca0b24f7e4e9","80_20_tri","7","reward_feedback","0","0","0","0","18","18","18","V/S","Volatile","Congruent","Triangle","Triangle","Left","Left","Correct","1","-2","18","290","1875","0"
"6.6.1","win","2024-12-06","11:29:09","5f3e8437fcbaca0b24f7e4e9","80_20_tri","7","fixation_congruent_feedback_triangle","0","0","0","0","19","18","18","V/S","Volatile","Congruent","Triangle","Triangle","Left","Left","Correct","0","-2","19","290","1905","0"
"6.6.1","win","2024-12-06","11:29:09","5f3e8437fcbaca0b24f7e4e9","80_20_tri","7","congruent_feedback_triangle","18","1","0","0","19","19","18","V/S","Volatile","Congruent","Triangle","Triangle","Left","Left","Correct","0","-2","19","224","1905","0"
"6.6.1","win","2024-12-06","11:29:09","5f3e8437fcbaca0b24f7e4e9","80_20_tri","7","reward_feedback","0","0","0","0","19","19","19","V/S","Volatile","Congruent","Triangle","Triangle","Left","Left","Correct","1","-1","19","224","1905","0"
"6.6.1","win","2024-12-06","11:29:09","5f3e8437fcbaca0b24f7e4e9","80_20_tri","7","fixation_congruent_feedback_triangle","0","0","0","0","20","19","19","V/S","Volatile","Congruent","Triangle","Triangle","Left","Left","Correct","0","-1","20","224","1916","0"
"6.6.1","win","2024-12-06","11:29:09","5f3e8437fcbaca0b24f7e4e9","80_20_tri","7","congruent_feedback_triangle","23","0","0","0","20","20","19","V/S","Volatile","Congruent","Triangle","Triangle","Left","Right","Incorrect","0","-1","20","129","1916","0"
"6.6.1","win","2024-12-06","11:29:09","5f3e8437fcbaca0b24f7e4e9","80_20_tri","7","punish_feedback","0","0","0","0","20","20","20","V/S","Volatile","Congruent","Triangle","Triangle","Left","Right","Incorrect","-1","-2","20","129","1916","0"
"6.6.1","win","2024-12-06","11:29:09","5f3e8437fcbaca0b24f7e4e9","80_20_cir","8","fixation_congruent_feedback_circle","0","0","0","0","21","20","20","V/S","Volatile","Congruent","Triangle","Circle","Left","Right","Incorrect","0","-2","1","129","1070","0"
"6.6.1","win","2024-12-06","11:29:09","5f3e8437fcbaca0b24f7e4e9","80_20_cir","8","congruent_feedback_circle","18","1","0","0","21","21","20","V/S","Volatile","Congruent","Triangle","Circle","Left","Left","Correct","0","-2","1","415","1070","0"
"6.6.1","win","2024-12-06","11:29:09","5f3e8437fcbaca0b24f7e4e9","80_20_cir","8","reward_feedback","0","0","0","0","21","21","21","V/S","Volatile","Congruent","Triangle","Circle","Left","Left","Correct","1","-1","1","415","1070","0"
"6.6.1","win","2024-12-06","11:29:09","5f3e8437fcbaca0b24f7e4e9","80_20_cir","8","fixation_congruent_feedback_circle","0","0","0","0","22","21","21","V/S","Volatile","Congruent","Triangle","Circle","Left","Left","Correct","0","-1","2","415","1100","0"
"6.6.1","win","2024-12-06","11:29:09","5f3e8437fcbaca0b24f7e4e9","80_20_cir","8","congruent_feedback_circle","18","1","0","0","22","22","21","V/S","Volatile","Congruent","Triangle","Circle","Left","Left","Correct","0","-1","2","392","1100","0"
"6.6.1","win","2024-12-06","11:29:09","5f3e8437fcbaca0b24f7e4e9","80_20_cir","8","reward_feedback","0","0","0","0","22","22","22","V/S","Volatile","Congruent","Triangle","Circle","Left","Left","Correct","1","0","2","392","1100","0"
"6.6.1","win","2024-12-06","11:29:09","5f3e8437fcbaca0b24f7e4e9","80_20_cir","8","fixation_incongruent_feedback_circle","0","0","0","0","23","22","22","V/S","Volatile","Incongruent","Triangle","Circle","Left","Left","Correct","0","0","3","392","1794","0"
"6.6.1","win","2024-12-06","11:29:09","5f3e8437fcbaca0b24f7e4e9","80_20_cir","8","incongruent_feedback_circle","23","0","0","0","23","23","22","V/S","Volatile","Incongruent","Triangle","Circle","Left","Right","Incorrect","0","0","3","22","1794","0"
"6.6.1","win","2024-12-06","11:29:09","5f3e8437fcbaca0b24f7e4e9","80_20_cir","8","reward_feedback","0","0","0","0","23","23","23","V/S","Volatile","Incongruent","Triangle","Circle","Left","Right","Incorrect","1","1","3","22","1794","0"
"6.6.1","win","2024-12-06","11:29:09","5f3e8437fcbaca0b24f7e4e9","80_20_cir","8","fixation_congruent_feedback_circle","0","0","0","0","24","23","23","V/S","Volatile","Congruent","Triangle","Circle","Right","Right","Incorrect","0","1","4","22","1159","0"
"6.6.1","win","2024-12-06","11:29:09","5f3e8437fcbaca0b24f7e4e9","80_20_cir","8","congruent_feedback_circle","18","0","0","0","24","24","23","V/S","Volatile","Congruent","Triangle","Circle","Right","Left","Incorrect","0","1","4","262","1159","0"
"6.6.1","win","2024-12-06","11:29:09","5f3e8437fcbaca0b24f7e4e9","80_20_cir","8","punish_feedback","0","0","0","0","24","24","24","V/S","Volatile","Congruent","Triangle","Circle","Right","Left","Incorrect","-1","0","4","262","1159","0"
"6.6.1","win","2024-12-06","11:29:09","5f3e8437fcbaca0b24f7e4e9","80_20_cir","8","fixation_congruent_feedback_circle","0","0","0","0","25","24","24","V/S","Volatile","Congruent","Triangle","Circle","Right","Left","Incorrect","0","0","5","262","1613","0"
"6.6.1","win","2024-12-06","11:29:09","5f3e8437fcbaca0b24f7e4e9","80_20_cir","8","congruent_feedback_circle","23","1","0","0","25","25","24","V/S","Volatile","Congruent","Triangle","Circle","Right","Right","Correct","0","0","5","201","1613","0"
"6.6.1","win","2024-12-06","11:29:09","5f3e8437fcbaca0b24f7e4e9","80_20_cir","8","reward_feedback","0","0","0","0","25","25","25","V/S","Volatile","Congruent","Triangle","Circle","Right","Right","Correct","1","1","5","201","1613","0"
"6.6.1","win","2024-12-06","11:29:09","5f3e8437fcbaca0b24f7e4e9","80_20_cir","9","fixation_congruent_feedback_circle","0","0","0","0","26","25","25","V/S","Volatile","Congruent","Triangle","Circle","Right","Right","Correct","0","1","6","201","1619","0"
"6.6.1","win","2024-12-06","11:29:09","5f3e8437fcbaca0b24f7e4e9","80_20_cir","9","congruent_feedback_circle","18","0","0","0","26","26","25","V/S","Volatile","Congruent","Triangle","Circle","Right","Left","Incorrect","0","1","6","117","1619","0"
"6.6.1","win","2024-12-06","11:29:09","5f3e8437fcbaca0b24f7e4e9","80_20_cir","9","punish_feedback","0","0","0","0","26","26","26","V/S","Volatile","Congruent","Triangle","Circle","Right","Left","Incorrect","-1","0","6","117","1619","0"
"6.6.1","win","2024-12-06","11:29:09","5f3e8437fcbaca0b24f7e4e9","80_20_cir","9","fixation_congruent_feedback_circle","0","0","0","0","27","26","26","V/S","Volatile","Congruent","Triangle","Circle","Right","Left","Incorrect","0","0","7","117","1818","0"
"6.6.1","win","2024-12-06","11:29:09","5f3e8437fcbaca0b24f7e4e9","80_20_cir","9","congruent_feedback_circle","23","1","0","0","27","27","26","V/S","Volatile","Congruent","Triangle","Circle","Right","Right","Correct","0","0","7","391","1818","0"
"6.6.1","win","2024-12-06","11:29:09","5f3e8437fcbaca0b24f7e4e9","80_20_cir","9","reward_feedback","0","0","0","0","27","27","27","V/S","Volatile","Congruent","Triangle","Circle","Right","Right","Correct","1","1","7","391","1818","0"
"6.6.1","win","2024-12-06","11:29:09","5f3e8437fcbaca0b24f7e4e9","80_20_cir","9","fixation_congruent_feedback_circle","0","0","0","0","28","27","27","V/S","Volatile","Congruent","Triangle","Circle","Right","Right","Correct","0","1","8","391","1107","0"
"6.6.1","win","2024-12-06","11:29:09","5f3e8437fcbaca0b24f7e4e9","80_20_cir","9","congruent_feedback_circle","18","0","0","0","28","28","27","V/S","Volatile","Congruent","Triangle","Circle","Right","Left","Incorrect","0","1","8","168","1107","0"
"6.6.1","win","2024-12-06","11:29:09","5f3e8437fcbaca0b24f7e4e9","80_20_cir","9","punish_feedback","0","0","0","0","28","28","28","V/S","Volatile","Congruent","Triangle","Circle","Right","Left","Incorrect","-1","0","8","168","1107","0"
"6.6.1","win","2024-12-06","11:29:09","5f3e8437fcbaca0b24f7e4e9","80_20_cir","9","fixation_incongruent_feedback_circle","0","0","0","0","29","28","28","V/S","Volatile","Incongruent","Triangle","Circle","Left","Left","Incorrect","0","0","9","168","1684","0"
"6.6.1","win","2024-12-06","11:29:09","5f3e8437fcbaca0b24f7e4e9","80_20_cir","9","incongruent_feedback_circle","18","1","0","0","29","29","28","V/S","Volatile","Incongruent","Triangle","Circle","Left","Left","Correct","0","0","9","214","1684","0"
"6.6.1","win","2024-12-06","11:29:09","5f3e8437fcbaca0b24f7e4e9","80_20_cir","9","punish_feedback","0","0","0","0","29","29","29","V/S","Volatile","Incongruent","Triangle","Circle","Left","Left","Correct","-1","-1","9","214","1684","0"
"6.6.1","win","2024-12-06","11:29:09","5f3e8437fcbaca0b24f7e4e9","80_20_cir","9","fixation_congruent_feedback_circle","0","0","0","0","30","29","29","V/S","Volatile","Congruent","Triangle","Circle","Right","Left","Correct","0","-1","10","214","1389","0"
"6.6.1","win","2024-12-06","11:29:09","5f3e8437fcbaca0b24f7e4e9","80_20_cir","9","congruent_feedback_circle","23","1","0","0","30","30","29","V/S","Volatile","Congruent","Triangle","Circle","Right","Right","Correct","0","-1","10","130","1389","0"
"6.6.1","win","2024-12-06","11:29:09","5f3e8437fcbaca0b24f7e4e9","80_20_cir","9","reward_feedback","0","0","0","0","30","30","30","V/S","Volatile","Congruent","Triangle","Circle","Right","Right","Correct","1","0","10","130","1389","0"
"6.6.1","win","2024-12-06","11:29:09","5f3e8437fcbaca0b24f7e4e9","80_20_cir","10","fixation_congruent_feedback_circle","0","0","0","0","31","30","30","V/S","Volatile","Congruent","Triangle","Circle","Left","Right","Correct","0","0","11","130","1649","0"
"6.6.1","win","2024-12-06","11:29:09","5f3e8437fcbaca0b24f7e4e9","80_20_cir","10","congruent_feedback_circle","18","1","0","0","31","31","30","V/S","Volatile","Congruent","Triangle","Circle","Left","Left","Correct","0","0","11","57","1649","0"
"6.6.1","win","2024-12-06","11:29:09","5f3e8437fcbaca0b24f7e4e9","80_20_cir","10","reward_feedback","0","0","0","0","31","31","31","V/S","Volatile","Congruent","Triangle","Circle","Left","Left","Correct","1","1","11","57","1649","0"
"6.6.1","win","2024-12-06","11:29:09","5f3e8437fcbaca0b24f7e4e9","80_20_cir","10","fixation_congruent_feedback_circle","0","0","0","0","32","31","31","V/S","Volatile","Congruent","Triangle","Circle","Left","Left","Correct","0","1","12","57","1304","0"
"6.6.1","win","2024-12-06","11:29:09","5f3e8437fcbaca0b24f7e4e9","80_20_cir","10","congruent_feedback_circle","18","1","0","0","32","32","31","V/S","Volatile","Congruent","Triangle","Circle","Left","Left","Correct","0","1","12","160","1304","0"
"6.6.1","win","2024-12-06","11:29:09","5f3e8437fcbaca0b24f7e4e9","80_20_cir","10","reward_feedback","0","0","0","0","32","32","32","V/S","Volatile","Congruent","Triangle","Circle","Left","Left","Correct","1","2","12","160","1304","0"
"6.6.1","win","2024-12-06","11:29:09","5f3e8437fcbaca0b24f7e4e9","80_20_cir","10","fixation_congruent_feedback_circle","0","0","0","0","33","32","32","V/S","Volatile","Congruent","Triangle","Circle","Right","Left","Correct","0","2","13","160","1630","0"
"6.6.1","win","2024-12-06","11:29:09","5f3e8437fcbaca0b24f7e4e9","80_20_cir","10","congruent_feedback_circle","23","1","0","0","33","33","32","V/S","Volatile","Congruent","Triangle","Circle","Right","Right","Correct","0","2","13","126","1630","0"
"6.6.1","win","2024-12-06","11:29:09","5f3e8437fcbaca0b24f7e4e9","80_20_cir","10","reward_feedback","0","0","0","0","33","33","33","V/S","Volatile","Congruent","Triangle","Circle","Right","Right","Correct","1","3","13","126","1630","0"
"6.6.1","win","2024-12-06","11:29:09","5f3e8437fcbaca0b24f7e4e9","80_20_cir","10","fixation_incongruent_feedback_circle","0","0","0","0","34","33","33","V/S","Volatile","Incongruent","Triangle","Circle","Right","Right","Correct","0","3","14","126","1676","0"
"6.6.1","win","2024-12-06","11:29:09","5f3e8437fcbaca0b24f7e4e9","80_20_cir","10","incongruent_feedback_circle","18","0","0","0","34","34","33","V/S","Volatile","Incongruent","Triangle","Circle","Right","Left","Incorrect","0","3","14","220","1676","0"
"6.6.1","win","2024-12-06","11:29:09","5f3e8437fcbaca0b24f7e4e9","80_20_cir","10","reward_feedback","0","0","0","0","34","34","34","V/S","Volatile","Incongruent","Triangle","Circle","Right","Left","Incorrect","1","4","14","220","1676","0"
"6.6.1","win","2024-12-06","11:29:09","5f3e8437fcbaca0b24f7e4e9","80_20_cir","10","fixation_congruent_feedback_circle","0","0","0","0","35","34","34","V/S","Volatile","Congruent","Triangle","Circle","Left","Left","Incorrect","0","4","15","220","1884","0"
"6.6.1","win","2024-12-06","11:29:09","5f3e8437fcbaca0b24f7e4e9","80_20_cir","10","congruent_feedback_circle","23","0","0","0","35","35","34","V/S","Volatile","Congruent","Triangle","Circle","Left","Right","Incorrect","0","4","15","375","1884","0"
"6.6.1","win","2024-12-06","11:29:09","5f3e8437fcbaca0b24f7e4e9","80_20_cir","10","punish_feedback","0","0","0","0","35","35","35","V/S","Volatile","Congruent","Triangle","Circle","Left","Right","Incorrect","-1","3","15","375","1884","0"
"6.6.1","win","2024-12-06","11:29:09","5f3e8437fcbaca0b24f7e4e9","80_20_cir","11","fixation_congruent_feedback_circle","0","0","0","0","36","35","35","V/S","Volatile","Congruent","Triangle","Circle","Left","Right","Incorrect","0","3","16","375","1468","0"
"6.6.1","win","2024-12-06","11:29:09","5f3e8437fcbaca0b24f7e4e9","80_20_cir","11","congruent_feedback_circle","18","1","0","0","36","36","35","V/S","Volatile","Congruent","Triangle","Circle","Left","Left","Correct","0","3","16","227","1468","0"
"6.6.1","win","2024-12-06","11:29:09","5f3e8437fcbaca0b24f7e4e9","80_20_cir","11","reward_feedback","0","0","0","0","36","36","36","V/S","Volatile","Congruent","Triangle","Circle","Left","Left","Correct","1","4","16","227","1468","0"
"6.6.1","win","2024-12-06","11:29:09","5f3e8437fcbaca0b24f7e4e9","80_20_cir","11","fixation_congruent_feedback_circle","0","0","0","0","37","36","36","V/S","Volatile","Congruent","Triangle","Circle","Left","Left","Correct","0","4","17","227","1385","0"
"6.6.1","win","2024-12-06","11:29:09","5f3e8437fcbaca0b24f7e4e9","80_20_cir","11","congruent_feedback_circle","23","0","0","0","37","37","36","V/S","Volatile","Congruent","Triangle","Circle","Left","Right","Incorrect","0","4","17","311","1385","0"
"6.6.1","win","2024-12-06","11:29:09","5f3e8437fcbaca0b24f7e4e9","80_20_cir","11","punish_feedback","0","0","0","0","37","37","37","V/S","Volatile","Congruent","Triangle","Circle","Left","Right","Incorrect","-1","3","17","311","1385","0"
"6.6.1","win","2024-12-06","11:29:09","5f3e8437fcbaca0b24f7e4e9","80_20_cir","11","fixation_incongruent_feedback_circle","0","0","0","0","38","37","37","V/S","Volatile","Incongruent","Triangle","Circle","Right","Right","Incorrect","0","3","18","311","1267","0"
"6.6.1","win","2024-12-06","11:29:09","5f3e8437fcbaca0b24f7e4e9","80_20_cir","11","incongruent_feedback_circle","18","0","0","0","38","38","37","V/S","Volatile","Incongruent","Triangle","Circle","Right","Left","Incorrect","0","3","18","198","1267","0"
"6.6.1","win","2024-12-06","11:29:09","5f3e8437fcbaca0b24f7e4e9","80_20_cir","11","reward_feedback","0","0","0","0","38","38","38","V/S","Volatile","Incongruent","Triangle","Circle","Right","Left","Incorrect","1","4","18","198","1267","0"
"6.6.1","win","2024-12-06","11:29:09","5f3e8437fcbaca0b24f7e4e9","80_20_cir","11","fixation_congruent_feedback_circle","0","0","0","0","39","38","38","V/S","Volatile","Congruent","Triangle","Circle","Right","Left","Incorrect","0","4","19","198","1550","0"
"6.6.1","win","2024-12-06","11:29:09","5f3e8437fcbaca0b24f7e4e9","80_20_cir","11","congruent_feedback_circle","23","1","0","0","39","39","38","V/S","Volatile","Congruent","Triangle","Circle","Right","Right","Correct","0","4","19","79","1550","0"
"6.6.1","win","2024-12-06","11:29:09","5f3e8437fcbaca0b24f7e4e9","80_20_cir","11","reward_feedback","0","0","0","0","39","39","39","V/S","Volatile","Congruent","Triangle","Circle","Right","Right","Correct","1","5","19","79","1550","0"
"6.6.1","win","2024-12-06","11:29:09","5f3e8437fcbaca0b24f7e4e9","80_20_cir","11","fixation_congruent_feedback_circle","0","0","0","0","40","39","39","V/S","Volatile","Congruent","Triangle","Circle","Left","Right","Correct","0","5","20","79","1963","0"
"6.6.1","win","2024-12-06","11:29:09","5f3e8437fcbaca0b24f7e4e9","80_20_cir","11","congruent_feedback_circle","23","0","0","0","40","40","39","V/S","Volatile","Congruent","Triangle","Circle","Left","Right","Incorrect","0","5","20","66","1963","0"
"6.6.1","win","2024-12-06","11:29:09","5f3e8437fcbaca0b24f7e4e9","80_20_cir","11","punish_feedback","0","0","0","0","40","40","40","V/S","Volatile","Congruent","Triangle","Circle","Left","Right","Incorrect","-1","4","20","66","1963","0"
"6.6.1","win","2024-12-06","11:29:09","5f3e8437fcbaca0b24f7e4e9","80_20_tri","12","fixation_congruent_feedback_triangle","0","0","0","0","41","40","40","V/S","Volatile","Congruent","Triangle","Triangle","Right","Right","Incorrect","0","4","1","66","1949","0"
"6.6.1","win","2024-12-06","11:29:09","5f3e8437fcbaca0b24f7e4e9","80_20_tri","12","congruent_feedback_triangle","18","0","0","0","41","41","40","V/S","Volatile","Congruent","Triangle","Triangle","Right","Left","Incorrect","0","4","1","230","1949","0"
"6.6.1","win","2024-12-06","11:29:09","5f3e8437fcbaca0b24f7e4e9","80_20_tri","12","punish_feedback","0","0","0","0","41","41","41","V/S","Volatile","Congruent","Triangle","Triangle","Right","Left","Incorrect","-1","3","1","230","1949","0"
"6.6.1","win","2024-12-06","11:29:09","5f3e8437fcbaca0b24f7e4e9","80_20_tri","12","fixation_incongruent_feedback_triangle","0","0","0","0","42","41","41","V/S","Volatile","Incongruent","Triangle","Triangle","Left","Left","Incorrect","0","3","2","230","1577","0"
"6.6.1","win","2024-12-06","11:29:09","5f3e8437fcbaca0b24f7e4e9","80_20_tri","12","incongruent_feedback_triangle","23","0","0","0","42","42","41","V/S","Volatile","Incongruent","Triangle","Triangle","Left","Right","Incorrect","0","3","2","109","1577","0"
"6.6.1","win","2024-12-06","11:29:09","5f3e8437fcbaca0b24f7e4e9","80_20_tri","12","reward_feedback","Ctrl+'Q'","1","0","0","42","42","42","V/S","Volatile","Incongruent","Triangle","Triangle","Left","Right","Incorrect","1","4","2","109","1577","0"
"6.6.1","win","2024-12-06","11:32:19","5f3e8437fcbaca0b24f7e4e9","Consent","1","Consenttitle","","1","0","0","0","0","0","S/V","Stable","","Triangle","0","","","","0","0","0","0","0","0"
"6.6.1","win","2024-12-06","11:32:19","5f3e8437fcbaca0b24f7e4e9","80_20_tri","4","fixation_congruent_feedback_triangle","0","0","0","0","1","0","0","S/V","Stable","Congruent","Triangle","Triangle","Left","","","0","0","0","0","1835","0"
"6.6.1","win","2024-12-06","11:32:19","5f3e8437fcbaca0b24f7e4e9","80_20_tri","4","congruent_feedback_triangle","18","1","0","0","1","1","0","S/V","Stable","Congruent","Triangle","Triangle","Left","Left","Correct","0","0","0","305","1835","0"
"6.6.1","win","2024-12-06","11:32:19","5f3e8437fcbaca0b24f7e4e9","80_20_tri","4","reward_feedback","0","0","0","0","1","1","1","S/V","Stable","Congruent","Triangle","Triangle","Left","Left","Correct","1","1","0","305","1835","0"
"6.6.1","win","2024-12-06","11:32:19","5f3e8437fcbaca0b24f7e4e9","80_20_tri","4","fixation_congruent_feedback_triangle","0","0","0","0","2","1","1","S/V","Stable","Congruent","Triangle","Triangle","Left","Left","Correct","0","1","0","305","1599","0"
"6.6.1","win","2024-12-06","11:32:19","5f3e8437fcbaca0b24f7e4e9","80_20_tri","4","congruent_feedback_triangle","23","0","0","0","2","2","1","S/V","Stable","Congruent","Triangle","Triangle","Left","Right","Incorrect","0","1","0","273","1599","0"
"6.6.1","win","2024-12-06","11:32:19","5f3e8437fcbaca0b24f7e4e9","80_20_tri","4","punish_feedback","0","0","0","0","2","2","2","S/V","Stable","Congruent","Triangle","Triangle","Left","Right","Incorrect","-1","0","0","273","1599","0"
"6.6.1","win","2024-12-06","11:32:19","5f3e8437fcbaca0b24f7e4e9","80_20_tri","4","fixation_incongruent_feedback_triangle","0","0","0","0","3","2","2","S/V","Stable","Incongruent","Triangle","Triangle","Right","Right","Incorrect","0","0","0","273","1976","0"
"6.6.1","win","2024-12-06","11:32:19","5f3e8437fcbaca0b24f7e4e9","80_20_tri","4","incongruent_feedback_triangle","18","0","0","0","3","3","2","S/V","Stable","Incongruent","Triangle","Triangle","Right","Left","Incorrect","0","0","0","291","1976","0"
"6.6.1","win","2024-12-06","11:32:19","5f3e8437fcbaca0b24f7e4e9","80_20_tri","4","reward_feedback","0","0","0","0","3","3","3","S/V","Stable","Incongruent","Triangle","Triangle","Right","Left","Incorrect","1","1","0","291","1976","0"
"6.6.1","win","2024-12-06","11:32:19","5f3e8437fcbaca0b24f7e4e9","80_20_tri","4","fixation_congruent_feedback_triangle","0","0","0","0","4","3","3","S/V","Stable","Congruent","Triangle","Triangle","Right","Left","Incorrect","0","1","0","291","1053","0"
"6.6.1","win","2024-12-06","11:32:19","5f3e8437fcbaca0b24f7e4e9","80_20_tri","4","congruent_feedback_triangle","23","1","0","0","4","4","3","S/V","Stable","Congruent","Triangle","Triangle","Right","Right","Correct","0","1","0","379","1053","0"
"6.6.1","win","2024-12-06","11:32:19","5f3e8437fcbaca0b24f7e4e9","80_20_tri","4","reward_feedback","0","0","0","0","4","4","4","S/V","Stable","Congruent","Triangle","Triangle","Right","Right","Correct","1","2","0","379","1053","0"
"6.6.1","win","2024-12-06","11:32:19","5f3e8437fcbaca0b24f7e4e9","80_20_tri","4","fixation_congruent_feedback_triangle","0","0","0","0","5","4","4","S/V","Stable","Congruent","Triangle","Triangle","Right","Right","Correct","0","2","0","379","1250","0"
"6.6.1","win","2024-12-06","11:32:19","5f3e8437fcbaca0b24f7e4e9","80_20_tri","4","congruent_feedback_triangle","18","0","0","0","5","5","4","S/V","Stable","Congruent","Triangle","Triangle","Right","Left","Incorrect","0","2","0","30","1250","0"
"6.6.1","win","2024-12-06","11:32:19","5f3e8437fcbaca0b24f7e4e9","80_20_tri","4","punish_feedback","0","0","0","0","5","5","5","S/V","Stable","Congruent","Triangle","Triangle","Right","Left","Incorrect","-1","1","0","30","1250","0"
"6.6.1","win","2024-12-06","11:32:19","5f3e8437fcbaca0b24f7e4e9","80_20_tri","5","fixation_congruent_feedback_triangle","0","0","0","0","6","5","5","S/V","Stable","Congruent","Triangle","Triangle","Left","Left","Incorrect","0","1","0","30","1184","0"
"6.6.1","win","2024-12-06","11:32:19","5f3e8437fcbaca0b24f7e4e9","80_20_tri","5","congruent_feedback_triangle","23","0","0","0","6","6","5","S/V","Stable","Congruent","Triangle","Triangle","Left","Right","Incorrect","0","1","0","249","1184","0"
"6.6.1","win","2024-12-06","11:32:19","5f3e8437fcbaca0b24f7e4e9","80_20_tri","5","punish_feedback","0","0","0","0","6","6","6","S/V","Stable","Congruent","Triangle","Triangle","Left","Right","Incorrect","-1","0","0","249","1184","0"
"6.6.1","win","2024-12-06","11:32:19","5f3e8437fcbaca0b24f7e4e9","80_20_tri","5","fixation_incongruent_feedback_triangle","0","0","0","0","7","6","6","S/V","Stable","Incongruent","Triangle","Triangle","Right","Right","Incorrect","0","0","0","249","1817","0"
"6.6.1","win","2024-12-06","11:32:19","5f3e8437fcbaca0b24f7e4e9","80_20_tri","5","incongruent_feedback_triangle","18","0","0","0","7","7","6","S/V","Stable","Incongruent","Triangle","Triangle","Right","Left","Incorrect","0","0","0","243","1817","0"
"6.6.1","win","2024-12-06","11:32:19","5f3e8437fcbaca0b24f7e4e9","80_20_tri","5","reward_feedback","0","0","0","0","7","7","7","S/V","Stable","Incongruent","Triangle","Triangle","Right","Left","Incorrect","1","1","0","243","1817","0"
"6.6.1","win","2024-12-06","11:32:19","5f3e8437fcbaca0b24f7e4e9","80_20_tri","5","fixation_congruent_feedback_triangle","Ctrl+'Q'","1","0","0","8","7","7","S/V","Stable","Congruent","Triangle","Triangle","Left","Left","Incorrect","0","1","0","243","1971","0"
"6.6.1","win","2024-12-06","11:32:55","5f3e8437fcbaca0b24f7e4e9","Consent","1","Consenttitle","","1","0","0","0","0","0","V/S","Volatile","","Circle","0","","","","0","0","0","0","0","0"
"6.6.1","win","2024-12-06","11:32:55","5f3e8437fcbaca0b24f7e4e9","Consent","1","consent_1option1","Agree","1","0","0","0","0","0","V/S","Volatile","","Circle","0","","","","0","0","0","0","0","0"
"6.6.1","win","2024-12-06","11:32:55","5f3e8437fcbaca0b24f7e4e9","Consent","1","consent_2option1","Agree","1","0","0","0","0","0","V/S","Volatile","","Circle","0","","","","0","0","0","0","0","0"
"6.6.1","win","2024-12-06","11:32:55","5f3e8437fcbaca0b24f7e4e9","Consent","1","consent_3option1","Agree","1","0","0","0","0","0","V/S","Volatile","","Circle","0","","","","0","0","0","0","0","0"
"6.6.1","win","2024-12-06","11:32:55","5f3e8437fcbaca0b24f7e4e9","Consent","1","consent_4option1","Agree","1","0","0","0","0","0","V/S","Volatile","","Circle","0","","","","0","0","0","0","0","0"
"6.6.1","win","2024-12-06","11:32:55","5f3e8437fcbaca0b24f7e4e9","Consent","1","consent_5option1","Agree","1","0","0","0","0","0","V/S","Volatile","","Circle","0","","","","0","0","0","0","0","0"
"6.6.1","win","2024-12-06","11:32:55","5f3e8437fcbaca0b24f7e4e9","Consent","1","consent_6option1","Agree","1","0","0","0","0","0","V/S","Volatile","","Circle","0","","","","0","0","0","0","0","0"
"6.6.1","win","2024-12-06","11:32:55","5f3e8437fcbaca0b24f7e4e9","Consent","1","consent_7option1","Agree","1","0","0","0","0","0","V/S","Volatile","","Circle","0","","","","0","0","0","0","0","0"
"6.6.1","win","2024-12-06","11:32:55","5f3e8437fcbaca0b24f7e4e9","Consent","1","consent_8option1","Agree","1","0","0","0","0","0","V/S","Volatile","","Circle","0","","","","0","0","0","0","0","0"
"6.6.1","win","2024-12-06","11:32:55","5f3e8437fcbaca0b24f7e4e9","Consent","1","consent_9option1","Agree","1","0","0","0","0","0","V/S","Volatile","","Circle","0","","","","0","0","0","0","0","0"
"6.6.1","win","2024-12-06","11:32:55","5f3e8437fcbaca0b24f7e4e9","Consent","1","consent_10option1","Agree","1","0","0","0","0","0","V/S","Volatile","","Circle","0","","","","0","0","0","0","0","0"
"6.6.1","win","2024-12-06","11:32:55","5f3e8437fcbaca0b24f7e4e9","Consent","1","consent_11option1","Agree","1","0","0","0","0","0","V/S","Volatile","","Circle","0","","","","0","0","0","0","0","0"
"6.6.1","win","2024-12-06","11:32:55","5f3e8437fcbaca0b24f7e4e9","Consent","1","consent_12option1","Agree","1","0","0","0","0","0","V/S","Volatile","","Circle","0","","","","0","0","0","0","0","0"
"6.6.1","win","2024-12-06","11:32:55","5f3e8437fcbaca0b24f7e4e9","80_20_cir","4","fixation_congruent_feedback_circle","0","0","0","0","1","0","0","V/S","Volatile","Congruent","Circle","Circle","Right","","","0","0","1","0","1210","0"
"6.6.1","win","2024-12-06","11:32:55","5f3e8437fcbaca0b24f7e4e9","80_20_cir","4","congruent_feedback_circle","23","1","0","0","1","1","0","V/S","Volatile","Congruent","Circle","Circle","Right","Right","Correct","0","0","1","322","1210","0"
"6.6.1","win","2024-12-06","11:32:55","5f3e8437fcbaca0b24f7e4e9","80_20_cir","4","reward_feedback","0","0","0","0","1","1","1","V/S","Volatile","Congruent","Circle","Circle","Right","Right","Correct","1","1","1","322","1210","0"
"6.6.1","win","2024-12-06","11:32:55","5f3e8437fcbaca0b24f7e4e9","80_20_cir","4","fixation_congruent_feedback_circle","0","0","0","0","2","1","1","V/S","Volatile","Congruent","Circle","Circle","Left","Right","Correct","0","1","2","322","1033","0"
"6.6.1","win","2024-12-06","11:32:55","5f3e8437fcbaca0b24f7e4e9","80_20_cir","4","congruent_feedback_circle","18","1","0","0","2","2","1","V/S","Volatile","Congruent","Circle","Circle","Left","Left","Correct","0","1","2","314","1033","0"
"6.6.1","win","2024-12-06","11:32:55","5f3e8437fcbaca0b24f7e4e9","80_20_cir","4","reward_feedback","0","0","0","0","2","2","2","V/S","Volatile","Congruent","Circle","Circle","Left","Left","Correct","1","2","2","314","1033","0"
"6.6.1","win","2024-12-06","11:32:55","5f3e8437fcbaca0b24f7e4e9","80_20_cir","4","fixation_incongruent_feedback_circle","0","0","0","0","3","2","2","V/S","Volatile","Incongruent","Circle","Circle","Left","Left","Correct","0","2","3","314","1145","0"
"6.6.1","win","2024-12-06","11:32:55","5f3e8437fcbaca0b24f7e4e9","80_20_cir","4","incongruent_feedback_circle","23","0","0","0","3","3","2","V/S","Volatile","Incongruent","Circle","Circle","Left","Right","Incorrect","0","2","3","429","1145","0"
"6.6.1","win","2024-12-06","11:32:55","5f3e8437fcbaca0b24f7e4e9","80_20_cir","4","reward_feedback","0","0","0","0","3","3","3","V/S","Volatile","Incongruent","Circle","Circle","Left","Right","Incorrect","1","3","3","429","1145","0"
"6.6.1","win","2024-12-06","11:32:55","5f3e8437fcbaca0b24f7e4e9","80_20_cir","4","fixation_congruent_feedback_circle","0","0","0","0","4","3","3","V/S","Volatile","Congruent","Circle","Circle","Right","Right","Incorrect","0","3","4","429","1954","0"
"6.6.1","win","2024-12-06","11:32:55","5f3e8437fcbaca0b24f7e4e9","80_20_cir","4","congruent_feedback_circle","18","0","0","0","4","4","3","V/S","Volatile","Congruent","Circle","Circle","Right","Left","Incorrect","0","3","4","6","1954","0"
"6.6.1","win","2024-12-06","11:32:55","5f3e8437fcbaca0b24f7e4e9","80_20_cir","4","punish_feedback","0","0","0","0","4","4","4","V/S","Volatile","Congruent","Circle","Circle","Right","Left","Incorrect","-1","2","4","6","1954","0"
"6.6.1","win","2024-12-06","11:32:55","5f3e8437fcbaca0b24f7e4e9","80_20_cir","4","fixation_congruent_feedback_circle","0","0","0","0","5","4","4","V/S","Volatile","Congruent","Circle","Circle","Left","Left","Incorrect","0","2","5","6","1904","0"
"6.6.1","win","2024-12-06","11:32:55","5f3e8437fcbaca0b24f7e4e9","80_20_cir","4","congruent_feedback_circle","23","0","0","0","5","5","4","V/S","Volatile","Congruent","Circle","Circle","Left","Right","Incorrect","0","2","5","317","1904","0"
"6.6.1","win","2024-12-06","11:32:55","5f3e8437fcbaca0b24f7e4e9","80_20_cir","4","punish_feedback","0","0","0","0","5","5","5","V/S","Volatile","Congruent","Circle","Circle","Left","Right","Incorrect","-1","1","5","317","1904","0"
"6.6.1","win","2024-12-06","11:32:55","5f3e8437fcbaca0b24f7e4e9","80_20_cir","5","fixation_congruent_feedback_circle","0","0","0","0","6","5","5","V/S","Volatile","Congruent","Circle","Circle","Right","Right","Incorrect","0","1","6","317","1925","0"
"6.6.1","win","2024-12-06","11:32:55","5f3e8437fcbaca0b24f7e4e9","80_20_cir","5","congruent_feedback_circle","18","0","0","0","6","6","5","V/S","Volatile","Congruent","Circle","Circle","Right","Left","Incorrect","0","1","6","360","1925","0"
"6.6.1","win","2024-12-06","11:32:55","5f3e8437fcbaca0b24f7e4e9","80_20_cir","5","punish_feedback","0","0","0","0","6","6","6","V/S","Volatile","Congruent","Circle","Circle","Right","Left","Incorrect","-1","0","6","360","1925","0"
"6.6.1","win","2024-12-06","11:32:55","5f3e8437fcbaca0b24f7e4e9","80_20_cir","5","fixation_incongruent_feedback_circle","0","0","0","0","7","6","6","V/S","Volatile","Incongruent","Circle","Circle","Left","Left","Incorrect","0","0","7","360","1991","0"
"6.6.1","win","2024-12-06","11:32:55","5f3e8437fcbaca0b24f7e4e9","80_20_cir","5","incongruent_feedback_circle","23","0","0","0","7","7","6","V/S","Volatile","Incongruent","Circle","Circle","Left","Right","Incorrect","0","0","7","135","1991","0"
"6.6.1","win","2024-12-06","11:32:55","5f3e8437fcbaca0b24f7e4e9","80_20_cir","5","reward_feedback","0","0","0","0","7","7","7","V/S","Volatile","Incongruent","Circle","Circle","Left","Right","Incorrect","1","1","7","135","1991","0"
"6.6.1","win","2024-12-06","11:32:55","5f3e8437fcbaca0b24f7e4e9","80_20_cir","5","fixation_congruent_feedback_circle","0","0","0","0","8","7","7","V/S","Volatile","Congruent","Circle","Circle","Right","Right","Incorrect","0","1","8","135","1217","0"
"6.6.1","win","2024-12-06","11:32:55","5f3e8437fcbaca0b24f7e4e9","80_20_cir","5","congruent_feedback_circle","18","0","0","0","8","8","7","V/S","Volatile","Congruent","Circle","Circle","Right","Left","Incorrect","0","1","8","184","1217","0"
"6.6.1","win","2024-12-06","11:32:55","5f3e8437fcbaca0b24f7e4e9","80_20_cir","5","punish_feedback","0","0","0","0","8","8","8","V/S","Volatile","Congruent","Circle","Circle","Right","Left","Incorrect","-1","0","8","184","1217","0"
"6.6.1","win","2024-12-06","11:32:55","5f3e8437fcbaca0b24f7e4e9","80_20_cir","5","fixation_congruent_feedback_circle","0","0","0","0","9","8","8","V/S","Volatile","Congruent","Circle","Circle","Right","Left","Incorrect","0","0","9","184","1599","0"
"6.6.1","win","2024-12-06","11:32:55","5f3e8437fcbaca0b24f7e4e9","80_20_cir","5","congruent_feedback_circle","23","1","0","0","9","9","8","V/S","Volatile","Congruent","Circle","Circle","Right","Right","Correct","0","0","9","353","1599","0"
"6.6.1","win","2024-12-06","11:32:55","5f3e8437fcbaca0b24f7e4e9","80_20_cir","5","reward_feedback","0","0","0","0","9","9","9","V/S","Volatile","Congruent","Circle","Circle","Right","Right","Correct","1","1","9","353","1599","0"
"6.6.1","win","2024-12-06","11:32:55","5f3e8437fcbaca0b24f7e4e9","80_20_cir","5","fixation_congruent_feedback_circle","0","0","0","0","10","9","9","V/S","Volatile","Congruent","Circle","Circle","Left","Right","Correct","0","1","10","353","1466","0"
"6.6.1","win","2024-12-06","11:32:55","5f3e8437fcbaca0b24f7e4e9","80_20_cir","5","congruent_feedback_circle","18","1","0","0","10","10","9","V/S","Volatile","Congruent","Circle","Circle","Left","Left","Correct","0","1","10","332","1466","0"
"6.6.1","win","2024-12-06","11:32:55","5f3e8437fcbaca0b24f7e4e9","80_20_cir","5","reward_feedback","0","0","0","0","10","10","10","V/S","Volatile","Congruent","Circle","Circle","Left","Left","Correct","1","2","10","332","1466","0"
"6.6.1","win","2024-12-06","11:32:55","5f3e8437fcbaca0b24f7e4e9","80_20_cir","6","fixation_congruent_feedback_circle","0","0","0","0","11","10","10","V/S","Volatile","Congruent","Circle","Circle","Left","Left","Correct","0","2","11","332","1560","0"
"6.6.1","win","2024-12-06","11:32:55","5f3e8437fcbaca0b24f7e4e9","80_20_cir","6","congruent_feedback_circle","18","1","0","0","11","11","10","V/S","Volatile","Congruent","Circle","Circle","Left","Left","Correct","0","2","11","310","1560","0"
"6.6.1","win","2024-12-06","11:32:55","5f3e8437fcbaca0b24f7e4e9","80_20_cir","6","reward_feedback","0","0","0","0","11","11","11","V/S","Volatile","Congruent","Circle","Circle","Left","Left","Correct","1","3","11","310","1560","0"
"6.6.1","win","2024-12-06","11:32:55","5f3e8437fcbaca0b24f7e4e9","80_20_cir","6","fixation_congruent_feedback_circle","0","0","0","0","12","11","11","V/S","Volatile","Congruent","Circle","Circle","Left","Left","Correct","0","3","12","310","1126","0"
"6.6.1","win","2024-12-06","11:32:55","5f3e8437fcbaca0b24f7e4e9","80_20_cir","6","congruent_feedback_circle","23","0","0","0","12","12","11","V/S","Volatile","Congruent","Circle","Circle","Left","Right","Incorrect","0","3","12","362","1126","0"
"6.6.1","win","2024-12-06","11:32:55","5f3e8437fcbaca0b24f7e4e9","80_20_cir","6","punish_feedback","0","0","0","0","12","12","12","V/S","Volatile","Congruent","Circle","Circle","Left","Right","Incorrect","-1","2","12","362","1126","0"
"6.6.1","win","2024-12-06","11:32:55","5f3e8437fcbaca0b24f7e4e9","80_20_cir","6","fixation_congruent_feedback_circle","0","0","0","0","13","12","12","V/S","Volatile","Congruent","Circle","Circle","Right","Right","Incorrect","0","2","13","362","1137","0"
"6.6.1","win","2024-12-06","11:32:55","5f3e8437fcbaca0b24f7e4e9","80_20_cir","6","congruent_feedback_circle","18","0","0","0","13","13","12","V/S","Volatile","Congruent","Circle","Circle","Right","Left","Incorrect","0","2","13","587","1137","0"
"6.6.1","win","2024-12-06","11:32:55","5f3e8437fcbaca0b24f7e4e9","80_20_cir","6","punish_feedback","0","0","0","0","13","13","13","V/S","Volatile","Congruent","Circle","Circle","Right","Left","Incorrect","-1","1","13","587","1137","0"
"6.6.1","win","2024-12-06","11:32:55","5f3e8437fcbaca0b24f7e4e9","80_20_cir","6","fixation_incongruent_feedback_circle","0","0","0","0","14","13","13","V/S","Volatile","Incongruent","Circle","Circle","Left","Left","Incorrect","0","1","14","587","1670","0"
"6.6.1","win","2024-12-06","11:32:55","5f3e8437fcbaca0b24f7e4e9","80_20_cir","6","incongruent_feedback_circle","23","0","0","0","14","14","13","V/S","Volatile","Incongruent","Circle","Circle","Left","Right","Incorrect","0","1","14","360","1670","0"
"6.6.1","win","2024-12-06","11:32:55","5f3e8437fcbaca0b24f7e4e9","80_20_cir","6","reward_feedback","0","0","0","0","14","14","14","V/S","Volatile","Incongruent","Circle","Circle","Left","Right","Incorrect","1","2","14","360","1670","0"
"6.6.1","win","2024-12-06","11:32:55","5f3e8437fcbaca0b24f7e4e9","80_20_cir","6","fixation_congruent_feedback_circle","0","0","0","0","15","14","14","V/S","Volatile","Congruent","Circle","Circle","Right","Right","Incorrect","0","2","15","360","1879","0"
"6.6.1","win","2024-12-06","11:32:55","5f3e8437fcbaca0b24f7e4e9","80_20_cir","6","congruent_feedback_circle","18","0","0","0","15","15","14","V/S","Volatile","Congruent","Circle","Circle","Right","Left","Incorrect","0","2","15","276","1879","0"
"6.6.1","win","2024-12-06","11:32:55","5f3e8437fcbaca0b24f7e4e9","80_20_cir","6","punish_feedback","0","0","0","0","15","15","15","V/S","Volatile","Congruent","Circle","Circle","Right","Left","Incorrect","-1","1","15","276","1879","0"
"6.6.1","win","2024-12-06","11:32:55","5f3e8437fcbaca0b24f7e4e9","80_20_cir","7","fixation_congruent_feedback_circle","0","0","0","0","16","15","15","V/S","Volatile","Congruent","Circle","Circle","Left","Left","Incorrect","0","1","16","276","1667","0"
"6.6.1","win","2024-12-06","11:32:55","5f3e8437fcbaca0b24f7e4e9","80_20_cir","7","congruent_feedback_circle","23","0","0","0","16","16","15","V/S","Volatile","Congruent","Circle","Circle","Left","Right","Incorrect","0","1","16","307","1667","0"
"6.6.1","win","2024-12-06","11:32:55","5f3e8437fcbaca0b24f7e4e9","80_20_cir","7","punish_feedback","0","0","0","0","16","16","16","V/S","Volatile","Congruent","Circle","Circle","Left","Right","Incorrect","-1","0","16","307","1667","0"
"6.6.1","win","2024-12-06","11:32:55","5f3e8437fcbaca0b24f7e4e9","80_20_cir","7","fixation_congruent_feedback_circle","0","0","0","0","17","16","16","V/S","Volatile","Congruent","Circle","Circle","Right","Right","Incorrect","0","0","17","307","1115","0"
"6.6.1","win","2024-12-06","11:32:55","5f3e8437fcbaca0b24f7e4e9","80_20_cir","7","congruent_feedback_circle","18","0","0","0","17","17","16","V/S","Volatile","Congruent","Circle","Circle","Right","Left","Incorrect","0","0","17","688","1115","0"
"6.6.1","win","2024-12-06","11:32:55","5f3e8437fcbaca0b24f7e4e9","80_20_cir","7","punish_feedback","0","0","0","0","17","17","17","V/S","Volatile","Congruent","Circle","Circle","Right","Left","Incorrect","-1","-1","17","688","1115","0"
"6.6.1","win","2024-12-06","11:32:55","5f3e8437fcbaca0b24f7e4e9","80_20_cir","7","fixation_congruent_feedback_circle","0","0","0","0","18","17","17","V/S","Volatile","Congruent","Circle","Circle","Right","Left","Incorrect","0","-1","18","688","1914","0"
"6.6.1","win","2024-12-06","11:32:55","5f3e8437fcbaca0b24f7e4e9","80_20_cir","7","congruent_feedback_circle","23","1","0","0","18","18","17","V/S","Volatile","Congruent","Circle","Circle","Right","Right","Correct","0","-1","18","182","1914","0"
"6.6.1","win","2024-12-06","11:32:55","5f3e8437fcbaca0b24f7e4e9","80_20_cir","7","reward_feedback","0","0","0","0","18","18","18","V/S","Volatile","Congruent","Circle","Circle","Right","Right","Correct","1","0","18","182","1914","0"
"6.6.1","win","2024-12-06","11:32:55","5f3e8437fcbaca0b24f7e4e9","80_20_cir","7","fixation_congruent_feedback_circle","0","0","0","0","19","18","18","V/S","Volatile","Congruent","Circle","Circle","Right","Right","Correct","0","0","19","182","1061","0"
"6.6.1","win","2024-12-06","11:32:55","5f3e8437fcbaca0b24f7e4e9","80_20_cir","7","congruent_feedback_circle","0","0","0","0","19","19","18","V/S","Volatile","Congruent","Circle","Circle","Right","NR","Incorrect","0","0","19","4000","1061","0"
"6.6.1","win","2024-12-06","11:32:55","5f3e8437fcbaca0b24f7e4e9","80_20_cir","7","punish_feedback","0","0","0","0","19","19","19","V/S","Volatile","Congruent","Circle","Circle","Right","NR","Incorrect","-1","-1","19","4000","1061","0"
"6.6.1","win","2024-12-06","11:32:55","5f3e8437fcbaca0b24f7e4e9","80_20_cir","7","fixation_incongruent_feedback_circle","0","0","0","0","20","19","19","V/S","Volatile","Incongruent","Circle","Circle","Left","NR","Incorrect","0","-1","20","4000","1205","0"
"6.6.1","win","2024-12-06","11:32:55","5f3e8437fcbaca0b24f7e4e9","80_20_cir","7","incongruent_feedback_circle","18","1","0","0","20","20","19","V/S","Volatile","Incongruent","Circle","Circle","Left","Left","Correct","0","-1","20","385","1205","0"
"6.6.1","win","2024-12-06","11:32:55","5f3e8437fcbaca0b24f7e4e9","80_20_cir","7","punish_feedback","0","0","0","0","20","20","20","V/S","Volatile","Incongruent","Circle","Circle","Left","Left","Correct","-1","-2","20","385","1205","0"
"6.6.1","win","2024-12-06","11:32:55","5f3e8437fcbaca0b24f7e4e9","80_20_tri","8","fixation_incongruent_feedback_triangle","0","0","0","0","21","20","20","V/S","Volatile","Incongruent","Circle","Triangle","Left","Left","Correct","0","-2","1","385","1441","0"
"6.6.1","win","2024-12-06","11:32:55","5f3e8437fcbaca0b24f7e4e9","80_20_tri","8","incongruent_feedback_triangle","23","0","0","0","21","21","20","V/S","Volatile","Incongruent","Circle","Triangle","Left","Right","Incorrect","0","-2","1","485","1441","0"
"6.6.1","win","2024-12-06","11:32:55","5f3e8437fcbaca0b24f7e4e9","80_20_tri","8","reward_feedback","0","0","0","0","21","21","21","V/S","Volatile","Incongruent","Circle","Triangle","Left","Right","Incorrect","1","-1","1","485","1441","0"
"6.6.1","win","2024-12-06","11:32:55","5f3e8437fcbaca0b24f7e4e9","80_20_tri","8","fixation_congruent_feedback_triangle","0","0","0","0","22","21","21","V/S","Volatile","Congruent","Circle","Triangle","Right","Right","Incorrect","0","-1","2","485","1334","0"
"6.6.1","win","2024-12-06","11:32:55","5f3e8437fcbaca0b24f7e4e9","80_20_tri","8","congruent_feedback_triangle","23","1","0","0","22","22","21","V/S","Volatile","Congruent","Circle","Triangle","Right","Right","Correct","0","-1","2","123","1334","0"
"6.6.1","win","2024-12-06","11:32:55","5f3e8437fcbaca0b24f7e4e9","80_20_tri","8","reward_feedback","0","0","0","0","22","22","22","V/S","Volatile","Congruent","Circle","Triangle","Right","Right","Correct","1","0","2","123","1334","0"
"6.6.1","win","2024-12-06","11:32:55","5f3e8437fcbaca0b24f7e4e9","80_20_tri","8","fixation_congruent_feedback_triangle","0","0","0","0","23","22","22","V/S","Volatile","Congruent","Circle","Triangle","Left","Right","Correct","0","0","3","123","1965","0"
"6.6.1","win","2024-12-06","11:32:55","5f3e8437fcbaca0b24f7e4e9","80_20_tri","8","congruent_feedback_triangle","23","0","0","0","23","23","22","V/S","Volatile","Congruent","Circle","Triangle","Left","Right","Incorrect","0","0","3","333","1965","0"
"6.6.1","win","2024-12-06","11:32:55","5f3e8437fcbaca0b24f7e4e9","80_20_tri","8","punish_feedback","0","0","0","0","23","23","23","V/S","Volatile","Congruent","Circle","Triangle","Left","Right","Incorrect","-1","-1","3","333","1965","0"
"6.6.1","win","2024-12-06","11:32:55","5f3e8437fcbaca0b24f7e4e9","80_20_tri","8","fixation_congruent_feedback_triangle","0","0","0","0","24","23","23","V/S","Volatile","Congruent","Circle","Triangle","Right","Right","Incorrect","0","-1","4","333","1624","0"
"6.6.1","win","2024-12-06","11:32:55","5f3e8437fcbaca0b24f7e4e9","80_20_tri","8","congruent_feedback_triangle","18","0","0","0","24","24","23","V/S","Volatile","Congruent","Circle","Triangle","Right","Left","Incorrect","0","-1","4","389","1624","0"
"6.6.1","win","2024-12-06","11:32:55","5f3e8437fcbaca0b24f7e4e9","80_20_tri","8","punish_feedback","0","0","0","0","24","24","24","V/S","Volatile","Congruent","Circle","Triangle","Right","Left","Incorrect","-1","-2","4","389","1624","0"
"6.6.1","win","2024-12-06","11:32:55","5f3e8437fcbaca0b24f7e4e9","80_20_tri","8","fixation_congruent_feedback_triangle","0","0","0","0","25","24","24","V/S","Volatile","Congruent","Circle","Triangle","Right","Left","Incorrect","0","-2","5","389","1419","0"
"6.6.1","win","2024-12-06","11:32:55","5f3e8437fcbaca0b24f7e4e9","80_20_tri","8","congruent_feedback_triangle","23","1","0","0","25","25","24","V/S","Volatile","Congruent","Circle","Triangle","Right","Right","Correct","0","-2","5","91","1419","0"
"6.6.1","win","2024-12-06","11:32:55","5f3e8437fcbaca0b24f7e4e9","80_20_tri","8","reward_feedback","0","0","0","0","25","25","25","V/S","Volatile","Congruent","Circle","Triangle","Right","Right","Correct","1","-1","5","91","1419","0"
"6.6.1","win","2024-12-06","11:32:55","5f3e8437fcbaca0b24f7e4e9","80_20_tri","9","fixation_congruent_feedback_triangle","0","0","0","0","26","25","25","V/S","Volatile","Congruent","Circle","Triangle","Left","Right","Correct","0","-1","6","91","1733","0"
"6.6.1","win","2024-12-06","11:32:55","5f3e8437fcbaca0b24f7e4e9","80_20_tri","9","congruent_feedback_triangle","18","1","0","0","26","26","25","V/S","Volatile","Congruent","Circle","Triangle","Left","Left","Correct","0","-1","6","456","1733","0"
"6.6.1","win","2024-12-06","11:32:55","5f3e8437fcbaca0b24f7e4e9","80_20_tri","9","reward_feedback","0","0","0","0","26","26","26","V/S","Volatile","Congruent","Circle","Triangle","Left","Left","Correct","1","0","6","456","1733","0"
"6.6.1","win","2024-12-06","11:32:55","5f3e8437fcbaca0b24f7e4e9","80_20_tri","9","fixation_congruent_feedback_triangle","0","0","0","0","27","26","26","V/S","Volatile","Congruent","Circle","Triangle","Right","Left","Correct","0","0","7","456","1770","0"
"6.6.1","win","2024-12-06","11:32:55","5f3e8437fcbaca0b24f7e4e9","80_20_tri","9","congruent_feedback_triangle","23","1","0","0","27","27","26","V/S","Volatile","Congruent","Circle","Triangle","Right","Right","Correct","0","0","7","1388","1770","0"
"6.6.1","win","2024-12-06","11:32:55","5f3e8437fcbaca0b24f7e4e9","80_20_tri","9","reward_feedback","0","0","0","0","27","27","27","V/S","Volatile","Congruent","Circle","Triangle","Right","Right","Correct","1","1","7","1388","1770","0"
"6.6.1","win","2024-12-06","11:32:55","5f3e8437fcbaca0b24f7e4e9","80_20_tri","9","fixation_congruent_feedback_triangle","0","0","0","0","28","27","27","V/S","Volatile","Congruent","Circle","Triangle","Left","Right","Correct","0","1","8","1388","1628","0"
"6.6.1","win","2024-12-06","11:32:55","5f3e8437fcbaca0b24f7e4e9","80_20_tri","9","congruent_feedback_triangle","18","1","0","0","28","28","27","V/S","Volatile","Congruent","Circle","Triangle","Left","Left","Correct","0","1","8","722","1628","0"
"6.6.1","win","2024-12-06","11:32:55","5f3e8437fcbaca0b24f7e4e9","80_20_tri","9","reward_feedback","0","0","0","0","28","28","28","V/S","Volatile","Congruent","Circle","Triangle","Left","Left","Correct","1","2","8","722","1628","0"
"6.6.1","win","2024-12-06","11:32:55","5f3e8437fcbaca0b24f7e4e9","80_20_tri","9","fixation_incongruent_feedback_triangle","0","0","0","0","29","28","28","V/S","Volatile","Incongruent","Circle","Triangle","Right","Left","Correct","0","2","9","722","1386","0"
"6.6.1","win","2024-12-06","11:32:55","5f3e8437fcbaca0b24f7e4e9","80_20_tri","9","incongruent_feedback_triangle","23","1","0","0","29","29","28","V/S","Volatile","Incongruent","Circle","Triangle","Right","Right","Correct","0","2","9","300","1386","0"
"6.6.1","win","2024-12-06","11:32:55","5f3e8437fcbaca0b24f7e4e9","80_20_tri","9","punish_feedback","0","0","0","0","29","29","29","V/S","Volatile","Incongruent","Circle","Triangle","Right","Right","Correct","-1","1","9","300","1386","0"
"6.6.1","win","2024-12-06","11:32:55","5f3e8437fcbaca0b24f7e4e9","80_20_tri","9","fixation_congruent_feedback_triangle","0","0","0","0","30","29","29","V/S","Volatile","Congruent","Circle","Triangle","Left","Right","Correct","0","1","10","300","1619","0"
"6.6.1","win","2024-12-06","11:32:55","5f3e8437fcbaca0b24f7e4e9","80_20_tri","9","congruent_feedback_triangle","23","0","0","0","30","30","29","V/S","Volatile","Congruent","Circle","Triangle","Left","Right","Incorrect","0","1","10","2989","1619","0"
"6.6.1","win","2024-12-06","11:32:55","5f3e8437fcbaca0b24f7e4e9","80_20_tri","9","punish_feedback","0","0","0","0","30","30","30","V/S","Volatile","Congruent","Circle","Triangle","Left","Right","Incorrect","-1","0","10","2989","1619","0"
"6.6.1","win","2024-12-06","11:32:55","5f3e8437fcbaca0b24f7e4e9","80_20_tri","10","fixation_congruent_feedback_triangle","0","0","0","0","31","30","30","V/S","Volatile","Congruent","Circle","Triangle","Left","Right","Incorrect","0","0","11","2989","1232","0"
"6.6.1","win","2024-12-06","11:32:55","5f3e8437fcbaca0b24f7e4e9","80_20_tri","10","congruent_feedback_triangle","18","1","0","0","31","31","30","V/S","Volatile","Congruent","Circle","Triangle","Left","Left","Correct","0","0","11","345","1232","0"
"6.6.1","win","2024-12-06","11:32:55","5f3e8437fcbaca0b24f7e4e9","80_20_tri","10","reward_feedback","0","0","0","0","31","31","31","V/S","Volatile","Congruent","Circle","Triangle","Left","Left","Correct","1","1","11","345","1232","0"
"6.6.1","win","2024-12-06","11:32:55","5f3e8437fcbaca0b24f7e4e9","80_20_tri","10","fixation_congruent_feedback_triangle","0","0","0","0","32","31","31","V/S","Volatile","Congruent","Circle","Triangle","Left","Left","Correct","0","1","12","345","1052","0"
"6.6.1","win","2024-12-06","11:32:55","5f3e8437fcbaca0b24f7e4e9","80_20_tri","10","congruent_feedback_triangle","23","0","0","0","32","32","31","V/S","Volatile","Congruent","Circle","Triangle","Left","Right","Incorrect","0","1","12","520","1052","0"
"6.6.1","win","2024-12-06","11:32:55","5f3e8437fcbaca0b24f7e4e9","80_20_tri","10","punish_feedback","0","0","0","0","32","32","32","V/S","Volatile","Congruent","Circle","Triangle","Left","Right","Incorrect","-1","0","12","520","1052","0"
"6.6.1","win","2024-12-06","11:32:55","5f3e8437fcbaca0b24f7e4e9","80_20_tri","10","fixation_incongruent_feedback_triangle","0","0","0","0","33","32","32","V/S","Volatile","Incongruent","Circle","Triangle","Right","Right","Incorrect","0","0","13","520","1288","0"
"6.6.1","win","2024-12-06","11:32:55","5f3e8437fcbaca0b24f7e4e9","80_20_tri","10","incongruent_feedback_triangle","18","0","0","0","33","33","32","V/S","Volatile","Incongruent","Circle","Triangle","Right","Left","Incorrect","0","0","13","1694","1288","0"
"6.6.1","win","2024-12-06","11:32:55","5f3e8437fcbaca0b24f7e4e9","80_20_tri","10","reward_feedback","0","0","0","0","33","33","33","V/S","Volatile","Incongruent","Circle","Triangle","Right","Left","Incorrect","1","1","13","1694","1288","0"
"6.6.1","win","2024-12-06","11:32:55","5f3e8437fcbaca0b24f7e4e9","80_20_tri","10","fixation_congruent_feedback_triangle","0","0","0","0","34","33","33","V/S","Volatile","Congruent","Circle","Triangle","Right","Left","Incorrect","0","1","14","1694","1215","0"
"6.6.1","win","2024-12-06","11:32:55","5f3e8437fcbaca0b24f7e4e9","80_20_tri","10","congruent_feedback_triangle","23","1","0","0","34","34","33","V/S","Volatile","Congruent","Circle","Triangle","Right","Right","Correct","0","1","14","295","1215","0"
"6.6.1","win","2024-12-06","11:32:55","5f3e8437fcbaca0b24f7e4e9","80_20_tri","10","reward_feedback","0","0","0","0","34","34","34","V/S","Volatile","Congruent","Circle","Triangle","Right","Right","Correct","1","2","14","295","1215","0"
"6.6.1","win","2024-12-06","11:32:55","5f3e8437fcbaca0b24f7e4e9","80_20_tri","10","fixation_congruent_feedback_triangle","0","0","0","0","35","34","34","V/S","Volatile","Congruent","Circle","Triangle","Left","Right","Correct","0","2","15","295","1481","0"
"6.6.1","win","2024-12-06","11:32:55","5f3e8437fcbaca0b24f7e4e9","80_20_tri","10","congruent_feedback_triangle","0","0","0","0","35","35","34","V/S","Volatile","Congruent","Circle","Triangle","Left","NR","Incorrect","0","2","15","4000","1481","0"
"6.6.1","win","2024-12-06","11:32:55","5f3e8437fcbaca0b24f7e4e9","80_20_tri","10","punish_feedback","0","0","0","0","35","35","35","V/S","Volatile","Congruent","Circle","Triangle","Left","NR","Incorrect","-1","1","15","4000","1481","0"
"6.6.1","win","2024-12-06","11:32:55","5f3e8437fcbaca0b24f7e4e9","80_20_tri","11","fixation_congruent_feedback_triangle","0","0","0","0","36","35","35","V/S","Volatile","Congruent","Circle","Triangle","Right","NR","Incorrect","0","1","16","4000","1520","0"
"6.6.1","win","2024-12-06","11:32:55","5f3e8437fcbaca0b24f7e4e9","80_20_tri","11","congruent_feedback_triangle","18","0","0","0","36","36","35","V/S","Volatile","Congruent","Circle","Triangle","Right","Left","Incorrect","0","1","16","102","1520","0"
"6.6.1","win","2024-12-06","11:32:55","5f3e8437fcbaca0b24f7e4e9","80_20_tri","11","punish_feedback","0","0","0","0","36","36","36","V/S","Volatile","Congruent","Circle","Triangle","Right","Left","Incorrect","-1","0","16","102","1520","0"
"6.6.1","win","2024-12-06","11:32:55","5f3e8437fcbaca0b24f7e4e9","80_20_tri","11","fixation_incongruent_feedback_triangle","0","0","0","0","37","36","36","V/S","Volatile","Incongruent","Circle","Triangle","Right","Left","Incorrect","0","0","17","102","1896","0"
"6.6.1","win","2024-12-06","11:32:55","5f3e8437fcbaca0b24f7e4e9","80_20_tri","11","incongruent_feedback_triangle","23","1","0","0","37","37","36","V/S","Volatile","Incongruent","Circle","Triangle","Right","Right","Correct","0","0","17","756","1896","0"
"6.6.1","win","2024-12-06","11:32:55","5f3e8437fcbaca0b24f7e4e9","80_20_tri","11","punish_feedback","0","0","0","0","37","37","37","V/S","Volatile","Incongruent","Circle","Triangle","Right","Right","Correct","-1","-1","17","756","1896","0"
"6.6.1","win","2024-12-06","11:32:55","5f3e8437fcbaca0b24f7e4e9","80_20_tri","11","fixation_congruent_feedback_triangle","0","0","0","0","38","37","37","V/S","Volatile","Congruent","Circle","Triangle","Right","Right","Correct","0","-1","18","756","1214","0"
"6.6.1","win","2024-12-06","11:32:55","5f3e8437fcbaca0b24f7e4e9","80_20_tri","11","congruent_feedback_triangle","18","0","0","0","38","38","37","V/S","Volatile","Congruent","Circle","Triangle","Right","Left","Incorrect","0","-1","18","387","1214","0"
"6.6.1","win","2024-12-06","11:32:55","5f3e8437fcbaca0b24f7e4e9","80_20_tri","11","punish_feedback","0","0","0","0","38","38","38","V/S","Volatile","Congruent","Circle","Triangle","Right","Left","Incorrect","-1","-2","18","387","1214","0"
"6.6.1","win","2024-12-06","11:32:55","5f3e8437fcbaca0b24f7e4e9","80_20_tri","11","fixation_congruent_feedback_triangle","0","0","0","0","39","38","38","V/S","Volatile","Congruent","Circle","Triangle","Left","Left","Incorrect","0","-2","19","387","1935","0"
"6.6.1","win","2024-12-06","11:32:55","5f3e8437fcbaca0b24f7e4e9","80_20_tri","11","congruent_feedback_triangle","23","0","0","0","39","39","38","V/S","Volatile","Congruent","Circle","Triangle","Left","Right","Incorrect","0","-2","19","436","1935","0"
"6.6.1","win","2024-12-06","11:32:55","5f3e8437fcbaca0b24f7e4e9","80_20_tri","11","punish_feedback","0","0","0","0","39","39","39","V/S","Volatile","Congruent","Circle","Triangle","Left","Right","Incorrect","-1","-3","19","436","1935","0"
"6.6.1","win","2024-12-06","11:32:55","5f3e8437fcbaca0b24f7e4e9","80_20_tri","11","fixation_congruent_feedback_triangle","0","0","0","0","40","39","39","V/S","Volatile","Congruent","Circle","Triangle","Right","Right","Incorrect","0","-3","20","436","1024","0"
"6.6.1","win","2024-12-06","11:32:55","5f3e8437fcbaca0b24f7e4e9","80_20_tri","11","congruent_feedback_triangle","18","0","0","0","40","40","39","V/S","Volatile","Congruent","Circle","Triangle","Right","Left","Incorrect","0","-3","20","1283","1024","0"
"6.6.1","win","2024-12-06","11:32:55","5f3e8437fcbaca0b24f7e4e9","80_20_tri","11","punish_feedback","0","0","0","0","40","40","40","V/S","Volatile","Congruent","Circle","Triangle","Right","Left","Incorrect","-1","-4","20","1283","1024","0"
"6.6.1","win","2024-12-06","11:32:55","5f3e8437fcbaca0b24f7e4e9","80_20_cir","12","fixation_congruent_feedback_circle","0","0","0","0","41","40","40","V/S","Volatile","Congruent","Circle","Circle","Left","Left","Incorrect","0","-4","1","1283","1832","0"
"6.6.1","win","2024-12-06","11:32:55","5f3e8437fcbaca0b24f7e4e9","80_20_cir","12","congruent_feedback_circle","23","0","0","0","41","41","40","V/S","Volatile","Congruent","Circle","Circle","Left","Right","Incorrect","0","-4","1","417","1832","0"
"6.6.1","win","2024-12-06","11:32:55","5f3e8437fcbaca0b24f7e4e9","80_20_cir","12","punish_feedback","0","0","0","0","41","41","41","V/S","Volatile","Congruent","Circle","Circle","Left","Right","Incorrect","-1","-5","1","417","1832","0"
"6.6.1","win","2024-12-06","11:32:55","5f3e8437fcbaca0b24f7e4e9","80_20_cir","12","fixation_congruent_feedback_circle","0","0","0","0","42","41","41","V/S","Volatile","Congruent","Circle","Circle","Right","Right","Incorrect","0","-5","2","417","1327","0"
"6.6.1","win","2024-12-06","11:32:55","5f3e8437fcbaca0b24f7e4e9","80_20_cir","12","congruent_feedback_circle","23","1","0","0","42","42","41","V/S","Volatile","Congruent","Circle","Circle","Right","Right","Correct","0","-5","2","554","1327","0"
"6.6.1","win","2024-12-06","11:32:55","5f3e8437fcbaca0b24f7e4e9","80_20_cir","12","reward_feedback","0","0","0","0","42","42","42","V/S","Volatile","Congruent","Circle","Circle","Right","Right","Correct","1","-4","2","554","1327","0"
"6.6.1","win","2024-12-06","11:32:55","5f3e8437fcbaca0b24f7e4e9","80_20_cir","12","fixation_congruent_feedback_circle","0","0","0","0","43","42","42","V/S","Volatile","Congruent","Circle","Circle","Left","Right","Correct","0","-4","3","554","1362","0"
"6.6.1","win","2024-12-06","11:32:55","5f3e8437fcbaca0b24f7e4e9","80_20_cir","12","congruent_feedback_circle","18","1","0","0","43","43","42","V/S","Volatile","Congruent","Circle","Circle","Left","Left","Correct","0","-4","3","493","1362","0"
"6.6.1","win","2024-12-06","11:32:55","5f3e8437fcbaca0b24f7e4e9","80_20_cir","12","reward_feedback","0","0","0","0","43","43","43","V/S","Volatile","Congruent","Circle","Circle","Left","Left","Correct","1","-3","3","493","1362","0"
"6.6.1","win","2024-12-06","11:32:55","5f3e8437fcbaca0b24f7e4e9","80_20_cir","12","fixation_congruent_feedback_circle","0","0","0","0","44","43","43","V/S","Volatile","Congruent","Circle","Circle","Left","Left","Correct","0","-3","4","493","1217","0"
"6.6.1","win","2024-12-06","11:32:55","5f3e8437fcbaca0b24f7e4e9","80_20_cir","12","congruent_feedback_circle","23","0","0","0","44","44","43","V/S","Volatile","Congruent","Circle","Circle","Left","Right","Incorrect","0","-3","4","366","1217","0"
"6.6.1","win","2024-12-06","11:32:55","5f3e8437fcbaca0b24f7e4e9","80_20_cir","12","punish_feedback","0","0","0","0","44","44","44","V/S","Volatile","Congruent","Circle","Circle","Left","Right","Incorrect","-1","-4","4","366","1217","0"
"6.6.1","win","2024-12-06","11:32:55","5f3e8437fcbaca0b24f7e4e9","80_20_cir","12","fixation_incongruent_feedback_circle","0","0","0","0","45","44","44","V/S","Volatile","Incongruent","Circle","Circle","Left","Right","Incorrect","0","-4","5","366","1445","0"
"6.6.1","win","2024-12-06","11:32:55","5f3e8437fcbaca0b24f7e4e9","80_20_cir","12","incongruent_feedback_circle","18","1","0","0","45","45","44","V/S","Volatile","Incongruent","Circle","Circle","Left","Left","Correct","0","-4","5","2971","1445","0"
"6.6.1","win","2024-12-06","11:32:55","5f3e8437fcbaca0b24f7e4e9","80_20_cir","12","punish_feedback","0","0","0","0","45","45","45","V/S","Volatile","Incongruent","Circle","Circle","Left","Left","Correct","-1","-5","5","2971","1445","0"
"6.6.1","win","2024-12-06","11:32:55","5f3e8437fcbaca0b24f7e4e9","80_20_cir","13","fixation_incongruent_feedback_circle","0","0","0","0","46","45","45","V/S","Volatile","Incongruent","Circle","Circle","Right","Left","Correct","0","-5","6","2971","1963","0"
"6.6.1","win","2024-12-06","11:32:55","5f3e8437fcbaca0b24f7e4e9","80_20_cir","13","incongruent_feedback_circle","23","1","0","0","46","46","45","V/S","Volatile","Incongruent","Circle","Circle","Right","Right","Correct","0","-5","6","395","1963","0"
"6.6.1","win","2024-12-06","11:32:55","5f3e8437fcbaca0b24f7e4e9","80_20_cir","13","punish_feedback","0","0","0","0","46","46","46","V/S","Volatile","Incongruent","Circle","Circle","Right","Right","Correct","-1","-6","6","395","1963","0"
"6.6.1","win","2024-12-06","11:32:55","5f3e8437fcbaca0b24f7e4e9","80_20_cir","13","fixation_congruent_feedback_circle","0","0","0","0","47","46","46","V/S","Volatile","Congruent","Circle","Circle","Right","Right","Correct","0","-6","7","395","1744","0"
"6.6.1","win","2024-12-06","11:32:55","5f3e8437fcbaca0b24f7e4e9","80_20_cir","13","congruent_feedback_circle","18","0","0","0","47","47","46","V/S","Volatile","Congruent","Circle","Circle","Right","Left","Incorrect","0","-6","7","324","1744","0"
"6.6.1","win","2024-12-06","11:32:55","5f3e8437fcbaca0b24f7e4e9","80_20_cir","13","punish_feedback","0","0","0","0","47","47","47","V/S","Volatile","Congruent","Circle","Circle","Right","Left","Incorrect","-1","-7","7","324","1744","0"
"6.6.1","win","2024-12-06","11:32:55","5f3e8437fcbaca0b24f7e4e9","80_20_cir","13","fixation_congruent_feedback_circle","0","0","0","0","48","47","47","V/S","Volatile","Congruent","Circle","Circle","Left","Left","Incorrect","0","-7","8","324","1510","0"
"6.6.1","win","2024-12-06","11:32:55","5f3e8437fcbaca0b24f7e4e9","80_20_cir","13","congruent_feedback_circle","23","0","0","0","48","48","47","V/S","Volatile","Congruent","Circle","Circle","Left","Right","Incorrect","0","-7","8","296","1510","0"
"6.6.1","win","2024-12-06","11:32:55","5f3e8437fcbaca0b24f7e4e9","80_20_cir","13","punish_feedback","0","0","0","0","48","48","48","V/S","Volatile","Congruent","Circle","Circle","Left","Right","Incorrect","-1","-8","8","296","1510","0"
"6.6.1","win","2024-12-06","11:32:55","5f3e8437fcbaca0b24f7e4e9","80_20_cir","13","fixation_congruent_feedback_circle","Ctrl+'Q'","1","0","0","49","48","48","V/S","Volatile","Congruent","Circle","Circle","Left","Right","Incorrect","0","-8","9","296","1988","0"
"6.6.1","win","2024-12-06","11:36:31","5f3e8437fcbaca0b24f7e4e9","Consent","1","Consenttitle","","1","0","0","0","0","0","S/V","Stable","","Triangle","0","","","","0","0","0","0","0","0"
"6.6.1","win","2024-12-06","11:36:31","5f3e8437fcbaca0b24f7e4e9","Consent","1","consent_1option1","Agree","1","0","0","0","0","0","S/V","Stable","","Triangle","0","","","","0","0","0","0","0","0"
"6.6.1","win","2024-12-06","11:36:31","5f3e8437fcbaca0b24f7e4e9","Consent","1","consent_2option1","Agree","1","0","0","0","0","0","S/V","Stable","","Triangle","0","","","","0","0","0","0","0","0"
"6.6.1","win","2024-12-06","11:36:31","5f3e8437fcbaca0b24f7e4e9","Consent","1","consent_3option1","Agree","1","0","0","0","0","0","S/V","Stable","","Triangle","0","","","","0","0","0","0","0","0"
"6.6.1","win","2024-12-06","11:36:31","5f3e8437fcbaca0b24f7e4e9","Consent","1","consent_4option1","Agree","1","0","0","0","0","0","S/V","Stable","","Triangle","0","","","","0","0","0","0","0","0"
"6.6.1","win","2024-12-06","11:36:31","5f3e8437fcbaca0b24f7e4e9","Consent","1","consent_5option1","Agree","1","0","0","0","0","0","S/V","Stable","","Triangle","0","","","","0","0","0","0","0","0"
"6.6.1","win","2024-12-06","11:36:31","5f3e8437fcbaca0b24f7e4e9","Consent","1","consent_6option1","Agree","1","0","0","0","0","0","S/V","Stable","","Triangle","0","","","","0","0","0","0","0","0"
"6.6.1","win","2024-12-06","11:36:31","5f3e8437fcbaca0b24f7e4e9","Consent","1","consent_7option1","Agree","1","0","0","0","0","0","S/V","Stable","","Triangle","0","","","","0","0","0","0","0","0"
"6.6.1","win","2024-12-06","11:36:31","5f3e8437fcbaca0b24f7e4e9","Consent","1","consent_8option1","Agree","1","0","0","0","0","0","S/V","Stable","","Triangle","0","","","","0","0","0","0","0","0"
"6.6.1","win","2024-12-06","11:36:31","5f3e8437fcbaca0b24f7e4e9","Consent","1","consent_9option1","Agree","1","0","0","0","0","0","S/V","Stable","","Triangle","0","","","","0","0","0","0","0","0"
"6.6.1","win","2024-12-06","11:36:31","5f3e8437fcbaca0b24f7e4e9","Consent","1","consent_10option1","Agree","1","0","0","0","0","0","S/V","Stable","","Triangle","0","","","","0","0","0","0","0","0"
"6.6.1","win","2024-12-06","11:36:31","5f3e8437fcbaca0b24f7e4e9","Consent","1","consent_11option1","Agree","1","0","0","0","0","0","S/V","Stable","","Triangle","0","","","","0","0","0","0","0","0"
"6.6.1","win","2024-12-06","11:36:31","5f3e8437fcbaca0b24f7e4e9","Consent","1","consent_12option1","Agree","1","0","0","0","0","0","S/V","Stable","","Triangle","0","","","","0","0","0","0","0","0"
"6.6.1","win","2024-12-06","11:36:31","5f3e8437fcbaca0b24f7e4e9","80_20_tri","4","fixation_congruent_feedback_triangle","0","0","0","0","1","0","0","S/V","Stable","Congruent","Triangle","Triangle","Left","","","0","0","0","0","1753","0"
"6.6.1","win","2024-12-06","11:36:31","5f3e8437fcbaca0b24f7e4e9","80_20_tri","4","congruent_feedback_triangle","23","0","0","0","1","1","0","S/V","Stable","Congruent","Triangle","Triangle","Left","Right","Incorrect","0","0","0","395","1753","0"
"6.6.1","win","2024-12-06","11:36:31","5f3e8437fcbaca0b24f7e4e9","80_20_tri","4","punish_feedback","0","0","0","0","1","1","1","S/V","Stable","Congruent","Triangle","Triangle","Left","Right","Incorrect","-1","-1","0","395","1753","0"
"6.6.1","win","2024-12-06","11:36:31","5f3e8437fcbaca0b24f7e4e9","80_20_tri","4","fixation_congruent_feedback_triangle","0","0","0","0","2","1","1","S/V","Stable","Congruent","Triangle","Triangle","Left","Right","Incorrect","0","-1","0","395","1949","0"
"6.6.1","win","2024-12-06","11:36:31","5f3e8437fcbaca0b24f7e4e9","80_20_tri","4","congruent_feedback_triangle","18","1","0","0","2","2","1","S/V","Stable","Congruent","Triangle","Triangle","Left","Left","Correct","0","-1","0","274","1949","0"
"6.6.1","win","2024-12-06","11:36:31","5f3e8437fcbaca0b24f7e4e9","80_20_tri","4","reward_feedback","0","0","0","0","2","2","2","S/V","Stable","Congruent","Triangle","Triangle","Left","Left","Correct","1","0","0","274","1949","0"
"6.6.1","win","2024-12-06","11:36:31","5f3e8437fcbaca0b24f7e4e9","80_20_tri","4","fixation_incongruent_feedback_triangle","0","0","0","0","3","2","2","S/V","Stable","Incongruent","Triangle","Triangle","Right","Left","Correct","0","0","0","274","1462","0"
"6.6.1","win","2024-12-06","11:36:31","5f3e8437fcbaca0b24f7e4e9","80_20_tri","4","incongruent_feedback_triangle","23","1","0","0","3","3","2","S/V","Stable","Incongruent","Triangle","Triangle","Right","Right","Correct","0","0","0","329","1462","0"
"6.6.1","win","2024-12-06","11:36:31","5f3e8437fcbaca0b24f7e4e9","80_20_tri","4","punish_feedback","0","0","0","0","3","3","3","S/V","Stable","Incongruent","Triangle","Triangle","Right","Right","Correct","-1","-1","0","329","1462","0"
"6.6.1","win","2024-12-06","11:36:31","5f3e8437fcbaca0b24f7e4e9","80_20_tri","4","fixation_congruent_feedback_triangle","0","0","0","0","4","3","3","S/V","Stable","Congruent","Triangle","Triangle","Right","Right","Correct","0","-1","0","329","1627","0"
"6.6.1","win","2024-12-06","11:36:31","5f3e8437fcbaca0b24f7e4e9","80_20_tri","4","congruent_feedback_triangle","18","0","0","0","4","4","3","S/V","Stable","Congruent","Triangle","Triangle","Right","Left","Incorrect","0","-1","0","327","1627","0"
"6.6.1","win","2024-12-06","11:36:31","5f3e8437fcbaca0b24f7e4e9","80_20_tri","4","punish_feedback","0","0","0","0","4","4","4","S/V","Stable","Congruent","Triangle","Triangle","Right","Left","Incorrect","-1","-2","0","327","1627","0"
"6.6.1","win","2024-12-06","11:36:31","5f3e8437fcbaca0b24f7e4e9","80_20_tri","4","fixation_congruent_feedback_triangle","0","0","0","0","5","4","4","S/V","Stable","Congruent","Triangle","Triangle","Left","Left","Incorrect","0","-2","0","327","1986","0"
"6.6.1","win","2024-12-06","11:36:31","5f3e8437fcbaca0b24f7e4e9","80_20_tri","4","congruent_feedback_triangle","23","0","0","0","5","5","4","S/V","Stable","Congruent","Triangle","Triangle","Left","Right","Incorrect","0","-2","0","327","1986","0"
"6.6.1","win","2024-12-06","11:36:31","5f3e8437fcbaca0b24f7e4e9","80_20_tri","4","punish_feedback","0","0","0","0","5","5","5","S/V","Stable","Congruent","Triangle","Triangle","Left","Right","Incorrect","-1","-3","0","327","1986","0"
"6.6.1","win","2024-12-06","11:36:31","5f3e8437fcbaca0b24f7e4e9","80_20_tri","5","fixation_incongruent_feedback_triangle","0","0","0","0","6","5","5","S/V","Stable","Incongruent","Triangle","Triangle","Right","Right","Incorrect","0","-3","0","327","1112","0"
"6.6.1","win","2024-12-06","11:36:31","5f3e8437fcbaca0b24f7e4e9","80_20_tri","5","incongruent_feedback_triangle","23","1","0","0","6","6","5","S/V","Stable","Incongruent","Triangle","Triangle","Right","Right","Correct","0","-3","0","361","1112","0"
"6.6.1","win","2024-12-06","11:36:31","5f3e8437fcbaca0b24f7e4e9","80_20_tri","5","punish_feedback","0","0","0","0","6","6","6","S/V","Stable","Incongruent","Triangle","Triangle","Right","Right","Correct","-1","-4","0","361","1112","0"
"6.6.1","win","2024-12-06","11:36:31","5f3e8437fcbaca0b24f7e4e9","80_20_tri","5","fixation_congruent_feedback_triangle","0","0","0","0","7","6","6","S/V","Stable","Congruent","Triangle","Triangle","Right","Right","Correct","0","-4","0","361","1167","0"
"6.6.1","win","2024-12-06","11:36:31","5f3e8437fcbaca0b24f7e4e9","80_20_tri","5","congruent_feedback_triangle","18","0","0","0","7","7","6","S/V","Stable","Congruent","Triangle","Triangle","Right","Left","Incorrect","0","-4","0","296","1167","0"
"6.6.1","win","2024-12-06","11:36:31","5f3e8437fcbaca0b24f7e4e9","80_20_tri","5","punish_feedback","0","0","0","0","7","7","7","S/V","Stable","Congruent","Triangle","Triangle","Right","Left","Incorrect","-1","-5","0","296","1167","0"
"6.6.1","win","2024-12-06","11:36:31","5f3e8437fcbaca0b24f7e4e9","80_20_tri","5","fixation_congruent_feedback_triangle","0","0","0","0","8","7","7","S/V","Stable","Congruent","Triangle","Triangle","Right","Left","Incorrect","0","-5","0","296","1787","0"
"6.6.1","win","2024-12-06","11:36:31","5f3e8437fcbaca0b24f7e4e9","80_20_tri","5","congruent_feedback_triangle","23","1","0","0","8","8","7","S/V","Stable","Congruent","Triangle","Triangle","Right","Right","Correct","0","-5","0","114","1787","0"
"6.6.1","win","2024-12-06","11:36:31","5f3e8437fcbaca0b24f7e4e9","80_20_tri","5","reward_feedback","0","0","0","0","8","8","8","S/V","Stable","Congruent","Triangle","Triangle","Right","Right","Correct","1","-4","0","114","1787","0"
"6.6.1","win","2024-12-06","11:36:31","5f3e8437fcbaca0b24f7e4e9","80_20_tri","5","fixation_congruent_feedback_triangle","0","0","0","0","9","8","8","S/V","Stable","Congruent","Triangle","Triangle","Left","Right","Correct","0","-4","0","114","1331","0"
"6.6.1","win","2024-12-06","11:36:31","5f3e8437fcbaca0b24f7e4e9","80_20_tri","5","congruent_feedback_triangle","18","1","0","0","9","9","8","S/V","Stable","Congruent","Triangle","Triangle","Left","Left","Correct","0","-4","0","260","1331","0"
"6.6.1","win","2024-12-06","11:36:31","5f3e8437fcbaca0b24f7e4e9","80_20_tri","5","reward_feedback","0","0","0","0","9","9","9","S/V","Stable","Congruent","Triangle","Triangle","Left","Left","Correct","1","-3","0","260","1331","0"
"6.6.1","win","2024-12-06","11:36:31","5f3e8437fcbaca0b24f7e4e9","80_20_tri","5","fixation_congruent_feedback_triangle","0","0","0","0","10","9","9","S/V","Stable","Congruent","Triangle","Triangle","Left","Left","Correct","0","-3","0","260","1711","0"
"6.6.1","win","2024-12-06","11:36:31","5f3e8437fcbaca0b24f7e4e9","80_20_tri","5","congruent_feedback_triangle","23","0","0","0","10","10","9","S/V","Stable","Congruent","Triangle","Triangle","Left","Right","Incorrect","0","-3","0","305","1711","0"
"6.6.1","win","2024-12-06","11:36:31","5f3e8437fcbaca0b24f7e4e9","80_20_tri","5","punish_feedback","0","0","0","0","10","10","10","S/V","Stable","Congruent","Triangle","Triangle","Left","Right","Incorrect","-1","-4","0","305","1711","0"
"6.6.1","win","2024-12-06","11:36:31","5f3e8437fcbaca0b24f7e4e9","80_20_tri","6","fixation_congruent_feedback_triangle","0","0","0","0","11","10","10","S/V","Stable","Congruent","Triangle","Triangle","Left","Right","Incorrect","0","-4","0","305","1514","0"
"6.6.1","win","2024-12-06","11:36:31","5f3e8437fcbaca0b24f7e4e9","80_20_tri","6","congruent_feedback_triangle","23","0","0","0","11","11","10","S/V","Stable","Congruent","Triangle","Triangle","Left","Right","Incorrect","0","-4","0","341","1514","0"
"6.6.1","win","2024-12-06","11:36:31","5f3e8437fcbaca0b24f7e4e9","80_20_tri","6","punish_feedback","0","0","0","0","11","11","11","S/V","Stable","Congruent","Triangle","Triangle","Left","Right","Incorrect","-1","-5","0","341","1514","0"
"6.6.1","win","2024-12-06","11:36:31","5f3e8437fcbaca0b24f7e4e9","80_20_tri","6","fixation_congruent_feedback_triangle","0","0","0","0","12","11","11","S/V","Stable","Congruent","Triangle","Triangle","Right","Right","Incorrect","0","-5","0","341","1764","0"
"6.6.1","win","2024-12-06","11:36:31","5f3e8437fcbaca0b24f7e4e9","80_20_tri","6","congruent_feedback_triangle","18","0","0","0","12","12","11","S/V","Stable","Congruent","Triangle","Triangle","Right","Left","Incorrect","0","-5","0","437","1764","0"
"6.6.1","win","2024-12-06","11:36:31","5f3e8437fcbaca0b24f7e4e9","80_20_tri","6","punish_feedback","0","0","0","0","12","12","12","S/V","Stable","Congruent","Triangle","Triangle","Right","Left","Incorrect","-1","-6","0","437","1764","0"
"6.6.1","win","2024-12-06","11:36:31","5f3e8437fcbaca0b24f7e4e9","80_20_tri","6","fixation_incongruent_feedback_triangle","0","0","0","0","13","12","12","S/V","Stable","Incongruent","Triangle","Triangle","Left","Left","Incorrect","0","-6","0","437","1608","0"
"6.6.1","win","2024-12-06","11:36:31","5f3e8437fcbaca0b24f7e4e9","80_20_tri","6","incongruent_feedback_triangle","23","0","0","0","13","13","12","S/V","Stable","Incongruent","Triangle","Triangle","Left","Right","Incorrect","0","-6","0","336","1608","0"
"6.6.1","win","2024-12-06","11:36:31","5f3e8437fcbaca0b24f7e4e9","80_20_tri","6","reward_feedback","0","0","0","0","13","13","13","S/V","Stable","Incongruent","Triangle","Triangle","Left","Right","Incorrect","1","-5","0","336","1608","0"
"6.6.1","win","2024-12-06","11:36:31","5f3e8437fcbaca0b24f7e4e9","80_20_tri","6","fixation_congruent_feedback_triangle","0","0","0","0","14","13","13","S/V","Stable","Congruent","Triangle","Triangle","Left","Right","Incorrect","0","-5","0","336","1113","0"
"6.6.1","win","2024-12-06","11:36:31","5f3e8437fcbaca0b24f7e4e9","80_20_tri","6","congruent_feedback_triangle","18","1","0","0","14","14","13","S/V","Stable","Congruent","Triangle","Triangle","Left","Left","Correct","0","-5","0","370","1113","0"
"6.6.1","win","2024-12-06","11:36:31","5f3e8437fcbaca0b24f7e4e9","80_20_tri","6","reward_feedback","0","0","0","0","14","14","14","S/V","Stable","Congruent","Triangle","Triangle","Left","Left","Correct","1","-4","0","370","1113","0"
"6.6.1","win","2024-12-06","11:36:31","5f3e8437fcbaca0b24f7e4e9","80_20_tri","6","fixation_congruent_feedback_triangle","0","0","0","0","15","14","14","S/V","Stable","Congruent","Triangle","Triangle","Right","Left","Correct","0","-4","0","370","1877","0"
"6.6.1","win","2024-12-06","11:36:31","5f3e8437fcbaca0b24f7e4e9","80_20_tri","6","congruent_feedback_triangle","23","1","0","0","15","15","14","S/V","Stable","Congruent","Triangle","Triangle","Right","Right","Correct","0","-4","0","389","1877","0"
"6.6.1","win","2024-12-06","11:36:31","5f3e8437fcbaca0b24f7e4e9","80_20_tri","6","reward_feedback","0","0","0","0","15","15","15","S/V","Stable","Congruent","Triangle","Triangle","Right","Right","Correct","1","-3","0","389","1877","0"
"6.6.1","win","2024-12-06","11:36:31","5f3e8437fcbaca0b24f7e4e9","80_20_tri","7","fixation_congruent_feedback_triangle","0","0","0","0","16","15","15","S/V","Stable","Congruent","Triangle","Triangle","Left","Right","Correct","0","-3","0","389","1300","0"
"6.6.1","win","2024-12-06","11:36:31","5f3e8437fcbaca0b24f7e4e9","80_20_tri","7","congruent_feedback_triangle","18","1","0","0","16","16","15","S/V","Stable","Congruent","Triangle","Triangle","Left","Left","Correct","0","-3","0","365","1300","0"
"6.6.1","win","2024-12-06","11:36:31","5f3e8437fcbaca0b24f7e4e9","80_20_tri","7","reward_feedback","0","0","0","0","16","16","16","S/V","Stable","Congruent","Triangle","Triangle","Left","Left","Correct","1","-2","0","365","1300","0"
"6.6.1","win","2024-12-06","11:36:31","5f3e8437fcbaca0b24f7e4e9","80_20_tri","7","fixation_incongruent_feedback_triangle","0","0","0","0","17","16","16","S/V","Stable","Incongruent","Triangle","Triangle","Right","Left","Correct","0","-2","0","365","1425","0"
"6.6.1","win","2024-12-06","11:36:31","5f3e8437fcbaca0b24f7e4e9","80_20_tri","7","incongruent_feedback_triangle","23","1","0","0","17","17","16","S/V","Stable","Incongruent","Triangle","Triangle","Right","Right","Correct","0","-2","0","290","1425","0"
"6.6.1","win","2024-12-06","11:36:31","5f3e8437fcbaca0b24f7e4e9","80_20_tri","7","punish_feedback","0","0","0","0","17","17","17","S/V","Stable","Incongruent","Triangle","Triangle","Right","Right","Correct","-1","-3","0","290","1425","0"
"6.6.1","win","2024-12-06","11:36:31","5f3e8437fcbaca0b24f7e4e9","80_20_tri","7","fixation_congruent_feedback_triangle","0","0","0","0","18","17","17","S/V","Stable","Congruent","Triangle","Triangle","Left","Right","Correct","0","-3","0","290","1827","0"
"6.6.1","win","2024-12-06","11:36:31","5f3e8437fcbaca0b24f7e4e9","80_20_tri","7","congruent_feedback_triangle","23","0","0","0","18","18","17","S/V","Stable","Congruent","Triangle","Triangle","Left","Right","Incorrect","0","-3","0","289","1827","0"
"6.6.1","win","2024-12-06","11:36:31","5f3e8437fcbaca0b24f7e4e9","80_20_tri","7","punish_feedback","0","0","0","0","18","18","18","S/V","Stable","Congruent","Triangle","Triangle","Left","Right","Incorrect","-1","-4","0","289","1827","0"
"6.6.1","win","2024-12-06","11:36:31","5f3e8437fcbaca0b24f7e4e9","80_20_tri","7","fixation_congruent_feedback_triangle","0","0","0","0","19","18","18","S/V","Stable","Congruent","Triangle","Triangle","Left","Right","Incorrect","0","-4","0","289","1859","0"
"6.6.1","win","2024-12-06","11:36:31","5f3e8437fcbaca0b24f7e4e9","80_20_tri","7","congruent_feedback_triangle","18","1","0","0","19","19","18","S/V","Stable","Congruent","Triangle","Triangle","Left","Left","Correct","0","-4","0","472","1859","0"
"6.6.1","win","2024-12-06","11:36:31","5f3e8437fcbaca0b24f7e4e9","80_20_tri","7","reward_feedback","0","0","0","0","19","19","19","S/V","Stable","Congruent","Triangle","Triangle","Left","Left","Correct","1","-3","0","472","1859","0"
"6.6.1","win","2024-12-06","11:36:31","5f3e8437fcbaca0b24f7e4e9","80_20_tri","7","fixation_congruent_feedback_triangle","0","0","0","0","20","19","19","S/V","Stable","Congruent","Triangle","Triangle","Left","Left","Correct","0","-3","0","472","1870","0"
"6.6.1","win","2024-12-06","11:36:31","5f3e8437fcbaca0b24f7e4e9","80_20_tri","7","congruent_feedback_triangle","23","0","0","0","20","20","19","S/V","Stable","Congruent","Triangle","Triangle","Left","Right","Incorrect","0","-3","0","240","1870","0"
"6.6.1","win","2024-12-06","11:36:31","5f3e8437fcbaca0b24f7e4e9","80_20_tri","7","punish_feedback","0","0","0","0","20","20","20","S/V","Stable","Congruent","Triangle","Triangle","Left","Right","Incorrect","-1","-4","0","240","1870","0"
"6.6.1","win","2024-12-06","11:36:31","5f3e8437fcbaca0b24f7e4e9","80_20_tri","8","fixation_incongruent_feedback_triangle","0","0","0","0","21","20","20","S/V","Stable","Incongruent","Triangle","Triangle","Right","Right","Incorrect","0","-4","0","240","1906","0"
"6.6.1","win","2024-12-06","11:36:31","5f3e8437fcbaca0b24f7e4e9","80_20_tri","8","incongruent_feedback_triangle","23","1","0","0","21","21","20","S/V","Stable","Incongruent","Triangle","Triangle","Right","Right","Correct","0","-4","0","310","1906","0"
"6.6.1","win","2024-12-06","11:36:31","5f3e8437fcbaca0b24f7e4e9","80_20_tri","8","punish_feedback","0","0","0","0","21","21","21","S/V","Stable","Incongruent","Triangle","Triangle","Right","Right","Correct","-1","-5","0","310","1906","0"
"6.6.1","win","2024-12-06","11:36:31","5f3e8437fcbaca0b24f7e4e9","80_20_tri","8","fixation_congruent_feedback_triangle","0","0","0","0","22","21","21","S/V","Stable","Congruent","Triangle","Triangle","Left","Right","Correct","0","-5","0","310","1058","0"
"6.6.1","win","2024-12-06","11:36:31","5f3e8437fcbaca0b24f7e4e9","80_20_tri","8","congruent_feedback_triangle","18","1","0","0","22","22","21","S/V","Stable","Congruent","Triangle","Triangle","Left","Left","Correct","0","-5","0","260","1058","0"
"6.6.1","win","2024-12-06","11:36:31","5f3e8437fcbaca0b24f7e4e9","80_20_tri","8","reward_feedback","0","0","0","0","22","22","22","S/V","Stable","Congruent","Triangle","Triangle","Left","Left","Correct","1","-4","0","260","1058","0"
"6.6.1","win","2024-12-06","11:36:31","5f3e8437fcbaca0b24f7e4e9","80_20_tri","8","fixation_congruent_feedback_triangle","0","0","0","0","23","22","22","S/V","Stable","Congruent","Triangle","Triangle","Right","Left","Correct","0","-4","0","260","1881","0"
"6.6.1","win","2024-12-06","11:36:31","5f3e8437fcbaca0b24f7e4e9","80_20_tri","8","congruent_feedback_triangle","23","1","0","0","23","23","22","S/V","Stable","Congruent","Triangle","Triangle","Right","Right","Correct","0","-4","0","322","1881","0"
"6.6.1","win","2024-12-06","11:36:31","5f3e8437fcbaca0b24f7e4e9","80_20_tri","8","reward_feedback","0","0","0","0","23","23","23","S/V","Stable","Congruent","Triangle","Triangle","Right","Right","Correct","1","-3","0","322","1881","0"
"6.6.1","win","2024-12-06","11:36:31","5f3e8437fcbaca0b24f7e4e9","80_20_tri","8","fixation_congruent_feedback_triangle","0","0","0","0","24","23","23","S/V","Stable","Congruent","Triangle","Triangle","Left","Right","Correct","0","-3","0","322","1039","0"
"6.6.1","win","2024-12-06","11:36:31","5f3e8437fcbaca0b24f7e4e9","80_20_tri","8","congruent_feedback_triangle","18","1","0","0","24","24","23","S/V","Stable","Congruent","Triangle","Triangle","Left","Left","Correct","0","-3","0","393","1039","0"
"6.6.1","win","2024-12-06","11:36:31","5f3e8437fcbaca0b24f7e4e9","80_20_tri","8","reward_feedback","0","0","0","0","24","24","24","S/V","Stable","Congruent","Triangle","Triangle","Left","Left","Correct","1","-2","0","393","1039","0"
"6.6.1","win","2024-12-06","11:36:31","5f3e8437fcbaca0b24f7e4e9","80_20_tri","8","fixation_congruent_feedback_triangle","0","0","0","0","25","24","24","S/V","Stable","Congruent","Triangle","Triangle","Right","Left","Correct","0","-2","0","393","1475","0"
"6.6.1","win","2024-12-06","11:36:31","5f3e8437fcbaca0b24f7e4e9","80_20_tri","8","congruent_feedback_triangle","23","1","0","0","25","25","24","S/V","Stable","Congruent","Triangle","Triangle","Right","Right","Correct","0","-2","0","186","1475","0"
"6.6.1","win","2024-12-06","11:36:31","5f3e8437fcbaca0b24f7e4e9","80_20_tri","8","reward_feedback","0","0","0","0","25","25","25","S/V","Stable","Congruent","Triangle","Triangle","Right","Right","Correct","1","-1","0","186","1475","0"
"6.6.1","win","2024-12-06","11:36:31","5f3e8437fcbaca0b24f7e4e9","80_20_tri","9","fixation_congruent_feedback_triangle","0","0","0","0","26","25","25","S/V","Stable","Congruent","Triangle","Triangle","Left","Right","Correct","0","-1","0","186","1691","0"
"6.6.1","win","2024-12-06","11:36:31","5f3e8437fcbaca0b24f7e4e9","80_20_tri","9","congruent_feedback_triangle","18","1","0","0","26","26","25","S/V","Stable","Congruent","Triangle","Triangle","Left","Left","Correct","0","-1","0","403","1691","0"
"6.6.1","win","2024-12-06","11:36:31","5f3e8437fcbaca0b24f7e4e9","80_20_tri","9","reward_feedback","0","0","0","0","26","26","26","S/V","Stable","Congruent","Triangle","Triangle","Left","Left","Correct","1","0","0","403","1691","0"
"6.6.1","win","2024-12-06","11:36:31","5f3e8437fcbaca0b24f7e4e9","80_20_tri","9","fixation_incongruent_feedback_triangle","0","0","0","0","27","26","26","S/V","Stable","Incongruent","Triangle","Triangle","Left","Left","Correct","0","0","0","403","1842","0"
"6.6.1","win","2024-12-06","11:36:31","5f3e8437fcbaca0b24f7e4e9","80_20_tri","9","incongruent_feedback_triangle","23","0","0","0","27","27","26","S/V","Stable","Incongruent","Triangle","Triangle","Left","Right","Incorrect","0","0","0","238","1842","0"
"6.6.1","win","2024-12-06","11:36:31","5f3e8437fcbaca0b24f7e4e9","80_20_tri","9","reward_feedback","0","0","0","0","27","27","27","S/V","Stable","Incongruent","Triangle","Triangle","Left","Right","Incorrect","1","1","0","238","1842","0"
"6.6.1","win","2024-12-06","11:36:31","5f3e8437fcbaca0b24f7e4e9","80_20_tri","9","fixation_congruent_feedback_triangle","0","0","0","0","28","27","27","S/V","Stable","Congruent","Triangle","Triangle","Right","Right","Incorrect","0","1","0","238","1505","0"
"6.6.1","win","2024-12-06","11:36:31","5f3e8437fcbaca0b24f7e4e9","80_20_tri","9","congruent_feedback_triangle","23","1","0","0","28","28","27","S/V","Stable","Congruent","Triangle","Triangle","Right","Right","Correct","0","1","0","461","1505","0"
"6.6.1","win","2024-12-06","11:36:31","5f3e8437fcbaca0b24f7e4e9","80_20_tri","9","reward_feedback","0","0","0","0","28","28","28","S/V","Stable","Congruent","Triangle","Triangle","Right","Right","Correct","1","2","0","461","1505","0"
"6.6.1","win","2024-12-06","11:36:31","5f3e8437fcbaca0b24f7e4e9","80_20_tri","9","fixation_congruent_feedback_triangle","0","0","0","0","29","28","28","S/V","Stable","Congruent","Triangle","Triangle","Right","Right","Correct","0","2","0","461","1851","0"
"6.6.1","win","2024-12-06","11:36:31","5f3e8437fcbaca0b24f7e4e9","80_20_tri","9","congruent_feedback_triangle","18","0","0","0","29","29","28","S/V","Stable","Congruent","Triangle","Triangle","Right","Left","Incorrect","0","2","0","293","1851","0"
